onset	duration	trial_type	trial_number	bandit_num	mean_type	left_reward	right_reward	left_mean	right_mean	force_pos	response	response_time	points
n/a	n/a	h1	0.0	0.0	LH	40.0	64.0	40.0	52.0	L	left	1.08560000002	40.0
n/a	n/a	h1	0.0	1.0	LH	44.0	52.0	40.0	52.0	L	left	0.4905	84.0
n/a	n/a	h1	0.0	2.0	LH	40.0	48.0	40.0	52.0	R	right	0.667899999976	132.0
n/a	n/a	h1	0.0	3.0	LH	58.0	62.0	40.0	52.0	L	left	1.66920000005	190.0
n/a	n/a	h1	0.0	4.0	LH	52.0	40.0	40.0	52.0	X	left	2.51870000005	242.0
n/a	n/a	h6	1.0	0.0	LH	58.0	58.0	60.0	64.0	R	right	3.23739999998	300.0
n/a	n/a	h6	1.0	1.0	LH	59.0	60.0	60.0	64.0	L	left	0.334599999905	359.0
n/a	n/a	h6	1.0	2.0	LH	61.0	64.0	60.0	64.0	R	right	0.2165	423.0
n/a	n/a	h6	1.0	3.0	LH	55.0	56.0	60.0	64.0	R	right	0.373799999952	479.0
n/a	n/a	h6	1.0	4.0	LH	69.0	69.0	60.0	64.0	X	right	3.90320000005	548.0
n/a	n/a	h6	1.0	5.0	LH	58.0	77.0	60.0	64.0	X	right	1.85189999998	625.0
n/a	n/a	h6	1.0	6.0	LH	51.0	47.0	60.0	64.0	X	right	0.884200000048	672.0
n/a	n/a	h6	1.0	7.0	LH	52.0	56.0	60.0	64.0	X	left	0.4835	724.0
n/a	n/a	h6	1.0	8.0	LH	62.0	63.0	60.0	64.0	X	right	0.402	787.0
n/a	n/a	h6	1.0	9.0	LH	61.0	72.0	60.0	64.0	X	right	2.00419999993	859.0
n/a	n/a	h1	2.0	0.0	LH	48.0	67.0	40.0	70.0	R	right	1.40079999995	926.0
n/a	n/a	h1	2.0	1.0	LH	47.0	62.0	40.0	70.0	L	left	0.206299999952	973.0
n/a	n/a	h1	2.0	2.0	LH	39.0	62.0	40.0	70.0	R	right	0.168799999952	1035.0
n/a	n/a	h1	2.0	3.0	LH	50.0	65.0	40.0	70.0	L	left	0.265800000072	1085.0
n/a	n/a	h1	2.0	4.0	LH	35.0	67.0	40.0	70.0	X	right	1.285	1152.0
n/a	n/a	h1	3.0	0.0	LH	31.0	44.0	28.0	40.0	R	right	0.601899999976	1196.0
n/a	n/a	h1	3.0	1.0	LH	27.0	39.0	28.0	40.0	L	left	0.334900000095	1223.0
n/a	n/a	h1	3.0	2.0	LH	25.0	54.0	28.0	40.0	R	right	0.1845	1277.0
n/a	n/a	h1	3.0	3.0	LH	29.0	30.0	28.0	40.0	L	left	0.5	1306.0
n/a	n/a	h1	3.0	4.0	LH	29.0	47.0	28.0	40.0	X	right	0.768600000024	1353.0
n/a	n/a	h1	4.0	0.0	HL	67.0	22.0	60.0	30.0	R	right	0.395899999976	1375.0
n/a	n/a	h1	4.0	1.0	HL	55.0	38.0	60.0	30.0	R	right	1.152	1413.0
n/a	n/a	h1	4.0	2.0	HL	83.0	34.0	60.0	30.0	R	right	0.367899999976	1447.0
n/a	n/a	h1	4.0	3.0	HL	67.0	27.0	60.0	30.0	L	left	0.446899999976	1514.0
n/a	n/a	h1	4.0	4.0	HL	64.0	30.0	60.0	30.0	X	left	0.617800000071	1578.0
n/a	n/a	h1	5.0	0.0	HL	75.0	55.0	72.0	60.0	L	left	1.23480000007	1653.0
n/a	n/a	h1	5.0	1.0	HL	69.0	58.0	72.0	60.0	R	right	0.168	1711.0
n/a	n/a	h1	5.0	2.0	HL	62.0	75.0	72.0	60.0	L	left	0.218300000072	1773.0
n/a	n/a	h1	5.0	3.0	HL	69.0	50.0	72.0	60.0	R	right	0.266899999976	1823.0
n/a	n/a	h1	5.0	4.0	HL	81.0	50.0	72.0	60.0	X	left	1.43369999993	1904.0
n/a	n/a	h1	6.0	0.0	HL	60.0	66.0	68.0	60.0	R	right	0.367399999976	1970.0
n/a	n/a	h1	6.0	1.0	HL	76.0	54.0	68.0	60.0	L	left	0.137100000024	2046.0
n/a	n/a	h1	6.0	2.0	HL	62.0	51.0	68.0	60.0	L	left	0.367799999952	2108.0
n/a	n/a	h1	6.0	3.0	HL	57.0	44.0	68.0	60.0	R	right	0.2005	2152.0
n/a	n/a	h1	6.0	4.0	HL	63.0	47.0	68.0	60.0	X	left	1.40120000005	2215.0
n/a	n/a	h1	7.0	0.0	HL	39.0	32.0	44.0	40.0	L	left	0.300699999928	2254.0
n/a	n/a	h1	7.0	1.0	HL	49.0	52.0	44.0	40.0	L	left	0.482100000024	2303.0
n/a	n/a	h1	7.0	2.0	HL	39.0	32.0	44.0	40.0	L	left	0.7855	2342.0
n/a	n/a	h1	7.0	3.0	HL	36.0	47.0	44.0	40.0	R	right	0.458399999976	2389.0
n/a	n/a	h1	7.0	4.0	HL	39.0	37.0	44.0	40.0	X	right	1.10510000002	2426.0
n/a	n/a	h6	8.0	0.0	HL	96.0	65.0	90.0	60.0	L	left	0.220600000024	2522.0
n/a	n/a	h6	8.0	1.0	HL	88.0	57.0	90.0	60.0	L	left	0.6905	2610.0
n/a	n/a	h6	8.0	2.0	HL	84.0	59.0	90.0	60.0	R	right	0.250899999976	2669.0
n/a	n/a	h6	8.0	3.0	HL	76.0	67.0	90.0	60.0	R	right	0.467	2736.0
n/a	n/a	h6	8.0	4.0	HL	99.0	71.0	90.0	60.0	X	left	0.9505	2835.0
n/a	n/a	h6	8.0	5.0	HL	92.0	41.0	90.0	60.0	X	left	0.386399999976	2927.0
n/a	n/a	h6	8.0	6.0	HL	81.0	65.0	90.0	60.0	X	left	0.365699999928	3008.0
n/a	n/a	h6	8.0	7.0	HL	95.0	52.0	90.0	60.0	X	left	0.284700000048	3103.0
n/a	n/a	h6	8.0	8.0	HL	90.0	70.0	90.0	60.0	X	left	0.233400000095	3193.0
n/a	n/a	h6	8.0	9.0	HL	99.0	56.0	90.0	60.0	X	left	0.234600000024	3292.0
n/a	n/a	h6	9.0	0.0	HL	39.0	36.0	40.0	36.0	R	right	0.966399999976	3328.0
n/a	n/a	h6	9.0	1.0	HL	31.0	21.0	40.0	36.0	R	right	1.4505999999	3349.0
n/a	n/a	h6	9.0	2.0	HL	46.0	27.0	40.0	36.0	L	left	0.351199999928	3395.0
n/a	n/a	h6	9.0	3.0	HL	26.0	50.0	40.0	36.0	L	left	0.433600000024	3421.0
n/a	n/a	h6	9.0	4.0	HL	41.0	28.0	40.0	36.0	X	left	1.62669999993	3462.0
n/a	n/a	h6	9.0	5.0	HL	35.0	37.0	40.0	36.0	X	left	0.433600000024	3497.0
n/a	n/a	h6	9.0	6.0	HL	36.0	38.0	40.0	36.0	X	right	0.400099999905	3535.0
n/a	n/a	h6	9.0	7.0	HL	46.0	22.0	40.0	36.0	X	left	0.388	3581.0
n/a	n/a	h6	9.0	8.0	HL	35.0	32.0	40.0	36.0	X	left	0.383900000095	3616.0
n/a	n/a	h6	9.0	9.0	HL	37.0	30.0	40.0	36.0	X	left	0.273600000024	3653.0
n/a	n/a	h1	10.0	0.0	HL	70.0	46.0	60.0	40.0	R	right	1.5085999999	3699.0
n/a	n/a	h1	10.0	1.0	HL	54.0	36.0	60.0	40.0	R	right	0.541300000072	3735.0
n/a	n/a	h1	10.0	2.0	HL	46.0	26.0	60.0	40.0	R	right	0.4225	3761.0
n/a	n/a	h1	10.0	3.0	HL	68.0	32.0	60.0	40.0	L	left	0.333	3829.0
n/a	n/a	h1	10.0	4.0	HL	61.0	46.0	60.0	40.0	X	left	0.751800000072	3890.0
n/a	n/a	h1	11.0	0.0	HL	30.0	11.0	40.0	10.0	R	right	0.484	3901.0
n/a	n/a	h1	11.0	1.0	HL	39.0	7.0	40.0	10.0	L	left	0.424399999976	3940.0
n/a	n/a	h1	11.0	2.0	HL	45.0	1.0	40.0	10.0	R	right	0.667099999905	3941.0
n/a	n/a	h1	11.0	3.0	HL	34.0	9.0	40.0	10.0	L	left	0.801700000048	3975.0
n/a	n/a	h1	11.0	4.0	HL	33.0	19.0	40.0	10.0	X	left	0.451299999952	4008.0
n/a	n/a	h6	12.0	0.0	LH	27.0	80.0	30.0	60.0	R	right	1.1695	4088.0
n/a	n/a	h6	12.0	1.0	LH	40.0	61.0	30.0	60.0	R	right	0.367200000048	4149.0
n/a	n/a	h6	12.0	2.0	LH	20.0	58.0	30.0	60.0	L	left	1.13810000002	4169.0
n/a	n/a	h6	12.0	3.0	LH	25.0	65.0	30.0	60.0	L	left	0.549200000048	4194.0
n/a	n/a	h6	12.0	4.0	LH	34.0	60.0	30.0	60.0	X	right	1.5675999999	4254.0
n/a	n/a	h6	12.0	5.0	LH	33.0	53.0	30.0	60.0	X	right	0.300799999952	4307.0
n/a	n/a	h6	12.0	6.0	LH	33.0	73.0	30.0	60.0	X	right	0.217199999929	4380.0
n/a	n/a	h6	12.0	7.0	LH	18.0	45.0	30.0	60.0	X	right	0.218200000048	4425.0
n/a	n/a	h6	12.0	8.0	LH	37.0	68.0	30.0	60.0	X	right	0.267700000048	4493.0
n/a	n/a	h6	12.0	9.0	LH	33.0	60.0	30.0	60.0	X	right	0.935199999929	4553.0
n/a	n/a	h6	13.0	0.0	LH	58.0	58.0	60.0	64.0	R	right	0.385100000024	4611.0
n/a	n/a	h6	13.0	1.0	LH	59.0	60.0	60.0	64.0	L	left	0.151600000024	4670.0
n/a	n/a	h6	13.0	2.0	LH	61.0	64.0	60.0	64.0	R	right	0.184100000024	4734.0
n/a	n/a	h6	13.0	3.0	LH	55.0	56.0	60.0	64.0	R	right	0.3515	4790.0
n/a	n/a	h6	13.0	4.0	LH	73.0	70.0	60.0	64.0	X	left	1.71929999995	4863.0
n/a	n/a	h6	13.0	5.0	LH	69.0	59.0	60.0	64.0	X	left	0.467100000024	4932.0
n/a	n/a	h6	13.0	6.0	LH	58.0	75.0	60.0	64.0	X	left	0.517299999952	4990.0
n/a	n/a	h6	13.0	7.0	LH	61.0	68.0	60.0	64.0	X	left	0.450799999952	5051.0
n/a	n/a	h6	13.0	8.0	LH	58.0	61.0	60.0	64.0	X	left	0.317200000048	5109.0
n/a	n/a	h6	13.0	9.0	LH	62.0	79.0	60.0	64.0	X	left	0.217299999952	5171.0
n/a	n/a	h6	14.0	0.0	LH	44.0	39.0	40.0	48.0	R	right	0.234200000048	5210.0
n/a	n/a	h6	14.0	1.0	LH	50.0	55.0	40.0	48.0	R	right	0.684	5265.0
n/a	n/a	h6	14.0	2.0	LH	53.0	56.0	40.0	48.0	L	left	0.635799999952	5318.0
n/a	n/a	h6	14.0	3.0	LH	49.0	58.0	40.0	48.0	R	right	0.319799999952	5376.0
n/a	n/a	h6	14.0	4.0	LH	40.0	44.0	40.0	48.0	X	left	1.4685999999	5416.0
n/a	n/a	h6	14.0	5.0	LH	43.0	57.0	40.0	48.0	X	right	0.318399999976	5473.0
n/a	n/a	h6	14.0	6.0	LH	39.0	43.0	40.0	48.0	X	right	0.534199999928	5516.0
n/a	n/a	h6	14.0	7.0	LH	43.0	56.0	40.0	48.0	X	left	0.418099999905	5559.0
n/a	n/a	h6	14.0	8.0	LH	23.0	56.0	40.0	48.0	X	left	0.2515	5582.0
n/a	n/a	h6	14.0	9.0	LH	42.0	49.0	40.0	48.0	X	right	0.167300000071	5631.0
n/a	n/a	h1	15.0	0.0	HL	65.0	59.0	68.0	60.0	L	left	0.767400000095	5696.0
n/a	n/a	h1	15.0	1.0	HL	57.0	58.0	68.0	60.0	R	right	0.229200000048	5754.0
n/a	n/a	h1	15.0	2.0	HL	54.0	48.0	68.0	60.0	L	left	0.263100000024	5808.0
n/a	n/a	h1	15.0	3.0	HL	70.0	61.0	68.0	60.0	L	left	0.517700000048	5878.0
n/a	n/a	h1	15.0	4.0	HL	69.0	51.0	68.0	60.0	X	left	0.685	5947.0
n/a	n/a	h6	16.0	0.0	LH	72.0	71.0	60.0	64.0	L	left	0.501299999952	6019.0
n/a	n/a	h6	16.0	1.0	LH	49.0	87.0	60.0	64.0	L	left	0.535399999976	6068.0
n/a	n/a	h6	16.0	2.0	LH	61.0	70.0	60.0	64.0	R	right	0.300199999928	6138.0
n/a	n/a	h6	16.0	3.0	LH	61.0	76.0	60.0	64.0	R	right	0.4735	6214.0
n/a	n/a	h6	16.0	4.0	LH	71.0	66.0	60.0	64.0	X	right	2.80239999998	6280.0
n/a	n/a	h6	16.0	5.0	LH	65.0	59.0	60.0	64.0	X	right	0.497899999976	6339.0
n/a	n/a	h6	16.0	6.0	LH	65.0	50.0	60.0	64.0	X	right	0.5345	6389.0
n/a	n/a	h6	16.0	7.0	LH	56.0	76.0	60.0	64.0	X	left	0.185099999905	6445.0
n/a	n/a	h6	16.0	8.0	LH	58.0	59.0	60.0	64.0	X	left	1.13479999995	6503.0
n/a	n/a	h6	16.0	9.0	LH	71.0	64.0	60.0	64.0	X	left	0.423200000048	6574.0
n/a	n/a	h6	17.0	0.0	LH	55.0	58.0	40.0	52.0	L	left	0.485	6629.0
n/a	n/a	h6	17.0	1.0	LH	32.0	39.0	40.0	52.0	R	right	0.22	6668.0
n/a	n/a	h6	17.0	2.0	LH	52.0	53.0	40.0	52.0	L	left	0.2675	6720.0
n/a	n/a	h6	17.0	3.0	LH	62.0	54.0	40.0	52.0	R	right	0.183199999929	6774.0
n/a	n/a	h6	17.0	4.0	LH	32.0	60.0	40.0	52.0	X	left	1.43389999998	6806.0
n/a	n/a	h6	17.0	5.0	LH	45.0	51.0	40.0	52.0	X	right	0.3235	6857.0
n/a	n/a	h6	17.0	6.0	LH	46.0	54.0	40.0	52.0	X	right	0.434400000095	6911.0
n/a	n/a	h6	17.0	7.0	LH	43.0	58.0	40.0	52.0	X	right	0.401399999976	6969.0
n/a	n/a	h6	17.0	8.0	LH	47.0	61.0	40.0	52.0	X	right	1.00039999998	7030.0
n/a	n/a	h6	17.0	9.0	LH	48.0	45.0	40.0	52.0	X	right	0.3185	7075.0
n/a	n/a	h6	18.0	0.0	HL	28.0	15.0	40.0	20.0	L	left	0.436199999928	7103.0
n/a	n/a	h6	18.0	1.0	HL	53.0	16.0	40.0	20.0	L	left	0.3185	7156.0
n/a	n/a	h6	18.0	2.0	HL	55.0	28.0	40.0	20.0	L	left	0.352100000024	7211.0
n/a	n/a	h6	18.0	3.0	HL	53.0	28.0	40.0	20.0	R	right	0.299899999976	7239.0
n/a	n/a	h6	18.0	4.0	HL	53.0	3.0	40.0	20.0	X	left	0.550399999976	7292.0
n/a	n/a	h6	18.0	5.0	HL	40.0	15.0	40.0	20.0	X	left	1.41820000005	7332.0
n/a	n/a	h6	18.0	6.0	HL	45.0	4.0	40.0	20.0	X	left	0.916	7377.0
n/a	n/a	h6	18.0	7.0	HL	41.0	20.0	40.0	20.0	X	left	0.355799999952	7418.0
n/a	n/a	h6	18.0	8.0	HL	43.0	25.0	40.0	20.0	X	right	0.253800000072	7443.0
n/a	n/a	h6	18.0	9.0	HL	47.0	26.0	40.0	20.0	X	left	0.251199999929	7490.0
n/a	n/a	h1	19.0	0.0	LH	66.0	43.0	56.0	60.0	L	left	0.201299999952	7556.0
n/a	n/a	h1	19.0	1.0	LH	33.0	67.0	56.0	60.0	R	right	0.153100000024	7623.0
n/a	n/a	h1	19.0	2.0	LH	42.0	59.0	56.0	60.0	L	left	0.170699999929	7665.0
n/a	n/a	h1	19.0	3.0	LH	55.0	64.0	56.0	60.0	R	right	0.350400000095	7729.0
n/a	n/a	h1	19.0	4.0	LH	47.0	58.0	56.0	60.0	X	right	0.8895	7787.0
n/a	n/a	h1	20.0	0.0	LH	25.0	38.0	32.0	40.0	L	left	0.133899999976	7812.0
n/a	n/a	h1	20.0	1.0	LH	29.0	57.0	32.0	40.0	L	left	0.423400000095	7841.0
n/a	n/a	h1	20.0	2.0	LH	44.0	23.0	32.0	40.0	R	right	0.417	7864.0
n/a	n/a	h1	20.0	3.0	LH	36.0	31.0	32.0	40.0	L	left	0.483099999905	7900.0
n/a	n/a	h1	20.0	4.0	LH	39.0	48.0	32.0	40.0	X	left	1.886	7939.0
n/a	n/a	h6	21.0	0.0	HL	43.0	35.0	40.0	28.0	R	right	0.834199999929	7974.0
n/a	n/a	h6	21.0	1.0	HL	31.0	21.0	40.0	28.0	R	right	0.8495	7995.0
n/a	n/a	h6	21.0	2.0	HL	40.0	28.0	40.0	28.0	R	right	0.400899999976	8023.0
n/a	n/a	h6	21.0	3.0	HL	36.0	23.0	40.0	28.0	L	left	0.406299999952	8059.0
n/a	n/a	h6	21.0	4.0	HL	40.0	27.0	40.0	28.0	X	left	1.25139999998	8099.0
n/a	n/a	h6	21.0	5.0	HL	46.0	20.0	40.0	28.0	X	left	0.233099999905	8145.0
n/a	n/a	h6	21.0	6.0	HL	50.0	21.0	40.0	28.0	X	left	0.150899999976	8195.0
n/a	n/a	h6	21.0	7.0	HL	41.0	37.0	40.0	28.0	X	left	0.133400000095	8236.0
n/a	n/a	h6	21.0	8.0	HL	44.0	19.0	40.0	28.0	X	left	0.5335	8280.0
n/a	n/a	h6	21.0	9.0	HL	37.0	25.0	40.0	28.0	X	left	0.366700000048	8317.0
n/a	n/a	h1	22.0	0.0	LH	32.0	76.0	40.0	60.0	L	left	0.434199999928	8349.0
n/a	n/a	h1	22.0	1.0	LH	37.0	65.0	40.0	60.0	R	right	0.2035	8414.0
n/a	n/a	h1	22.0	2.0	LH	46.0	68.0	40.0	60.0	L	left	0.157300000071	8460.0
n/a	n/a	h1	22.0	3.0	LH	37.0	69.0	40.0	60.0	R	right	0.136300000072	8529.0
n/a	n/a	h1	22.0	4.0	LH	40.0	53.0	40.0	60.0	X	right	0.652700000048	8582.0
n/a	n/a	h6	23.0	0.0	HL	49.0	36.0	60.0	40.0	L	left	0.351600000024	8631.0
n/a	n/a	h6	23.0	1.0	HL	68.0	43.0	60.0	40.0	R	right	0.751800000072	8674.0
n/a	n/a	h6	23.0	2.0	HL	55.0	40.0	60.0	40.0	L	left	0.267800000071	8729.0
n/a	n/a	h6	23.0	3.0	HL	67.0	41.0	60.0	40.0	R	right	0.284200000048	8770.0
n/a	n/a	h6	23.0	4.0	HL	49.0	34.0	60.0	40.0	X	left	1.64960000002	8819.0
n/a	n/a	h6	23.0	5.0	HL	57.0	35.0	60.0	40.0	X	left	0.450600000024	8876.0
n/a	n/a	h6	23.0	6.0	HL	55.0	50.0	60.0	40.0	X	left	0.401799999952	8931.0
n/a	n/a	h6	23.0	7.0	HL	54.0	28.0	60.0	40.0	X	left	0.217600000024	8985.0
n/a	n/a	h6	23.0	8.0	HL	66.0	35.0	60.0	40.0	X	right	0.09	9020.0
n/a	n/a	h6	23.0	9.0	HL	54.0	40.0	60.0	40.0	X	left	0.536399999976	9074.0
n/a	n/a	h6	24.0	0.0	LH	40.0	38.0	40.0	48.0	L	left	0.284700000048	9114.0
n/a	n/a	h6	24.0	1.0	LH	37.0	44.0	40.0	48.0	L	left	0.452799999952	9151.0
n/a	n/a	h6	24.0	2.0	LH	60.0	44.0	40.0	48.0	R	right	0.333	9195.0
n/a	n/a	h6	24.0	3.0	LH	42.0	52.0	40.0	48.0	R	right	0.450100000024	9247.0
n/a	n/a	h6	24.0	4.0	LH	52.0	55.0	40.0	48.0	X	right	0.584399999976	9302.0
n/a	n/a	h6	24.0	5.0	LH	46.0	51.0	40.0	48.0	X	right	0.273	9353.0
n/a	n/a	h6	24.0	6.0	LH	50.0	51.0	40.0	48.0	X	left	1.05060000002	9403.0
n/a	n/a	h6	24.0	7.0	LH	47.0	34.0	40.0	48.0	X	left	1.319	9450.0
n/a	n/a	h6	24.0	8.0	LH	30.0	49.0	40.0	48.0	X	right	0.218600000024	9499.0
n/a	n/a	h6	24.0	9.0	LH	29.0	53.0	40.0	48.0	X	left	0.524600000024	9528.0
n/a	n/a	h6	25.0	0.0	LH	25.0	48.0	20.0	40.0	L	left	1.491	9553.0
n/a	n/a	h6	25.0	1.0	LH	20.0	48.0	20.0	40.0	R	right	0.168699999928	9601.0
n/a	n/a	h6	25.0	2.0	LH	8.0	28.0	20.0	40.0	R	right	0.383300000071	9629.0
n/a	n/a	h6	25.0	3.0	LH	22.0	33.0	20.0	40.0	L	left	0.532899999976	9651.0
n/a	n/a	h6	25.0	4.0	LH	29.0	28.0	20.0	40.0	X	right	0.3845	9679.0
n/a	n/a	h6	25.0	5.0	LH	16.0	39.0	20.0	40.0	X	right	1.4015	9718.0
n/a	n/a	h6	25.0	6.0	LH	41.0	51.0	20.0	40.0	X	right	0.351	9769.0
n/a	n/a	h6	25.0	7.0	LH	22.0	35.0	20.0	40.0	X	right	0.368700000048	9804.0
n/a	n/a	h6	25.0	8.0	LH	30.0	50.0	20.0	40.0	X	right	1.402	9854.0
n/a	n/a	h6	25.0	9.0	LH	14.0	34.0	20.0	40.0	X	right	0.419	9888.0
n/a	n/a	h6	26.0	0.0	LH	69.0	46.0	56.0	60.0	R	right	0.317199999928	9934.0
n/a	n/a	h6	26.0	1.0	LH	65.0	53.0	56.0	60.0	L	left	0.316700000048	9999.0
n/a	n/a	h6	26.0	2.0	LH	57.0	59.0	56.0	60.0	L	left	0.624	10056.0
n/a	n/a	h6	26.0	3.0	LH	62.0	60.0	56.0	60.0	L	left	0.320599999905	10118.0
n/a	n/a	h6	26.0	4.0	LH	50.0	63.0	56.0	60.0	X	left	0.5185	10168.0
n/a	n/a	h6	26.0	5.0	LH	55.0	68.0	56.0	60.0	X	left	1.80089999998	10223.0
n/a	n/a	h6	26.0	6.0	LH	59.0	64.0	56.0	60.0	X	left	0.256600000024	10282.0
n/a	n/a	h6	26.0	7.0	LH	46.0	52.0	56.0	60.0	X	left	0.234800000072	10328.0
n/a	n/a	h6	26.0	8.0	LH	68.0	58.0	56.0	60.0	X	left	0.985300000072	10396.0
n/a	n/a	h6	26.0	9.0	LH	62.0	62.0	56.0	60.0	X	left	0.368400000095	10458.0
n/a	n/a	h1	27.0	0.0	HL	57.0	35.0	60.0	40.0	L	left	0.411399999976	10515.0
n/a	n/a	h1	27.0	1.0	HL	63.0	50.0	60.0	40.0	R	right	0.283899999976	10565.0
n/a	n/a	h1	27.0	2.0	HL	57.0	53.0	60.0	40.0	L	left	0.223199999929	10622.0
n/a	n/a	h1	27.0	3.0	HL	54.0	48.0	60.0	40.0	R	right	0.868299999952	10670.0
n/a	n/a	h1	27.0	4.0	HL	62.0	36.0	60.0	40.0	X	left	0.335099999905	10732.0
n/a	n/a	h6	28.0	0.0	HL	43.0	35.0	40.0	28.0	R	right	0.551100000024	10767.0
n/a	n/a	h6	28.0	1.0	HL	31.0	21.0	40.0	28.0	R	right	0.4785	10788.0
n/a	n/a	h6	28.0	2.0	HL	40.0	28.0	40.0	28.0	R	right	0.934899999976	10816.0
n/a	n/a	h6	28.0	3.0	HL	36.0	23.0	40.0	28.0	L	left	0.568899999976	10852.0
n/a	n/a	h6	28.0	4.0	HL	40.0	18.0	40.0	28.0	X	left	1.57060000002	10892.0
n/a	n/a	h6	28.0	5.0	HL	42.0	29.0	40.0	28.0	X	left	0.407100000024	10934.0
n/a	n/a	h6	28.0	6.0	HL	38.0	28.0	40.0	28.0	X	left	0.385	10972.0
n/a	n/a	h6	28.0	7.0	HL	43.0	25.0	40.0	28.0	X	left	1.23329999995	11015.0
n/a	n/a	h6	28.0	8.0	HL	43.0	29.0	40.0	28.0	X	left	0.502	11058.0
n/a	n/a	h6	28.0	9.0	HL	45.0	26.0	40.0	28.0	X	left	0.404700000048	11103.0
n/a	n/a	h6	29.0	0.0	LH	55.0	58.0	40.0	52.0	L	left	0.366399999976	11158.0
n/a	n/a	h6	29.0	1.0	LH	32.0	39.0	40.0	52.0	R	right	0.1665	11197.0
n/a	n/a	h6	29.0	2.0	LH	52.0	53.0	40.0	52.0	L	left	0.1845	11249.0
n/a	n/a	h6	29.0	3.0	LH	62.0	54.0	40.0	52.0	R	right	0.239800000072	11303.0
n/a	n/a	h6	29.0	4.0	LH	37.0	56.0	40.0	52.0	X	left	3.98710000002	11340.0
n/a	n/a	h6	29.0	5.0	LH	45.0	43.0	40.0	52.0	X	right	0.517899999976	11383.0
n/a	n/a	h6	29.0	6.0	LH	22.0	51.0	40.0	52.0	X	left	0.316299999952	11405.0
n/a	n/a	h6	29.0	7.0	LH	45.0	42.0	40.0	52.0	X	right	0.585399999976	11447.0
n/a	n/a	h6	29.0	8.0	LH	49.0	51.0	40.0	52.0	X	left	0.6665	11496.0
n/a	n/a	h6	29.0	9.0	LH	34.0	68.0	40.0	52.0	X	left	1.51920000005	11530.0
n/a	n/a	h1	30.0	0.0	LH	43.0	75.0	40.0	70.0	R	right	0.219	11605.0
n/a	n/a	h1	30.0	1.0	LH	30.0	80.0	40.0	70.0	R	right	0.568200000048	11685.0
n/a	n/a	h1	30.0	2.0	LH	40.0	70.0	40.0	70.0	R	right	0.937600000024	11755.0
n/a	n/a	h1	30.0	3.0	LH	22.0	65.0	40.0	70.0	L	left	1.38429999995	11777.0
n/a	n/a	h1	30.0	4.0	LH	40.0	78.0	40.0	70.0	X	right	0.206800000072	11855.0
n/a	n/a	h1	31.0	0.0	HL	60.0	66.0	68.0	60.0	R	right	0.268100000024	11921.0
n/a	n/a	h1	31.0	1.0	HL	76.0	54.0	68.0	60.0	L	left	0.1545	11997.0
n/a	n/a	h1	31.0	2.0	HL	62.0	51.0	68.0	60.0	L	left	0.437799999952	12059.0
n/a	n/a	h1	31.0	3.0	HL	57.0	44.0	68.0	60.0	R	right	0.355	12103.0
n/a	n/a	h1	31.0	4.0	HL	64.0	60.0	68.0	60.0	X	left	0.918	12167.0
n/a	n/a	h1	32.0	0.0	HL	30.0	11.0	40.0	10.0	R	right	0.299800000072	12178.0
n/a	n/a	h1	32.0	1.0	HL	39.0	7.0	40.0	10.0	L	left	0.251299999952	12217.0
n/a	n/a	h1	32.0	2.0	HL	45.0	1.0	40.0	10.0	R	right	1.028	12218.0
n/a	n/a	h1	32.0	3.0	HL	34.0	9.0	40.0	10.0	L	left	0.3515	12252.0
n/a	n/a	h1	32.0	4.0	HL	46.0	17.0	40.0	10.0	X	left	0.771399999976	12298.0
n/a	n/a	h6	33.0	0.0	HL	49.0	36.0	60.0	40.0	L	left	0.273799999952	12347.0
n/a	n/a	h6	33.0	1.0	HL	68.0	43.0	60.0	40.0	R	right	0.224200000048	12390.0
n/a	n/a	h6	33.0	2.0	HL	55.0	40.0	60.0	40.0	L	left	0.321	12445.0
n/a	n/a	h6	33.0	3.0	HL	67.0	41.0	60.0	40.0	R	right	2.25389999998	12486.0
n/a	n/a	h6	33.0	4.0	HL	59.0	49.0	60.0	40.0	X	left	1.45210000002	12545.0
n/a	n/a	h6	33.0	5.0	HL	60.0	28.0	60.0	40.0	X	left	0.415799999952	12605.0
n/a	n/a	h6	33.0	6.0	HL	50.0	48.0	60.0	40.0	X	left	0.334299999952	12655.0
n/a	n/a	h6	33.0	7.0	HL	64.0	50.0	60.0	40.0	X	left	0.351100000024	12719.0
n/a	n/a	h6	33.0	8.0	HL	57.0	31.0	60.0	40.0	X	left	0.834600000024	12776.0
n/a	n/a	h6	33.0	9.0	HL	54.0	45.0	60.0	40.0	X	left	1.65160000002	12830.0
n/a	n/a	h6	34.0	0.0	LH	53.0	77.0	60.0	80.0	L	left	0.751399999976	12883.0
n/a	n/a	h6	34.0	1.0	LH	60.0	78.0	60.0	80.0	L	left	0.634299999952	12943.0
n/a	n/a	h6	34.0	2.0	LH	58.0	68.0	60.0	80.0	L	left	0.868299999952	13001.0
n/a	n/a	h6	34.0	3.0	LH	57.0	67.0	60.0	80.0	R	right	0.8915	13068.0
n/a	n/a	h6	34.0	4.0	LH	66.0	90.0	60.0	80.0	X	left	0.482399999976	13134.0
n/a	n/a	h6	34.0	5.0	LH	81.0	75.0	60.0	80.0	X	left	1.384	13215.0
n/a	n/a	h6	34.0	6.0	LH	67.0	84.0	60.0	80.0	X	left	0.401799999952	13282.0
n/a	n/a	h6	34.0	7.0	LH	62.0	68.0	60.0	80.0	X	left	0.283799999952	13344.0
n/a	n/a	h6	34.0	8.0	LH	72.0	88.0	60.0	80.0	X	left	0.385	13416.0
n/a	n/a	h6	34.0	9.0	LH	58.0	63.0	60.0	80.0	X	left	0.551	13474.0
n/a	n/a	h6	35.0	0.0	LH	27.0	80.0	30.0	60.0	R	right	1.41910000002	13554.0
n/a	n/a	h6	35.0	1.0	LH	40.0	61.0	30.0	60.0	R	right	0.7905	13615.0
n/a	n/a	h6	35.0	2.0	LH	20.0	58.0	30.0	60.0	L	left	0.3035	13635.0
n/a	n/a	h6	35.0	3.0	LH	25.0	65.0	30.0	60.0	L	left	1.30939999998	13660.0
n/a	n/a	h6	35.0	4.0	LH	30.0	62.0	30.0	60.0	X	right	0.2505	13722.0
n/a	n/a	h6	35.0	5.0	LH	38.0	58.0	30.0	60.0	X	right	0.1685	13780.0
n/a	n/a	h6	35.0	6.0	LH	32.0	69.0	30.0	60.0	X	right	0.116100000024	13849.0
n/a	n/a	h6	35.0	7.0	LH	38.0	65.0	30.0	60.0	X	right	0.0550000000001	13914.0
n/a	n/a	h6	35.0	8.0	LH	40.0	48.0	30.0	60.0	X	right	0.150799999952	13962.0
n/a	n/a	h6	35.0	9.0	LH	18.0	68.0	30.0	60.0	X	right	0.370300000071	14030.0
n/a	n/a	h1	36.0	0.0	HL	70.0	46.0	60.0	40.0	R	right	1.5200999999	14076.0
n/a	n/a	h1	36.0	1.0	HL	54.0	36.0	60.0	40.0	R	right	0.339699999928	14112.0
n/a	n/a	h1	36.0	2.0	HL	46.0	26.0	60.0	40.0	R	right	0.451900000095	14138.0
n/a	n/a	h1	36.0	3.0	HL	68.0	32.0	60.0	40.0	L	left	1.30139999998	14206.0
n/a	n/a	h1	36.0	4.0	HL	54.0	37.0	60.0	40.0	X	left	0.986600000024	14260.0
n/a	n/a	h1	37.0	0.0	LH	51.0	75.0	48.0	60.0	R	right	3.45389999998	14335.0
n/a	n/a	h1	37.0	1.0	LH	58.0	57.0	48.0	60.0	R	right	0.417400000095	14392.0
n/a	n/a	h1	37.0	2.0	LH	46.0	58.0	48.0	60.0	L	left	0.284600000024	14438.0
n/a	n/a	h1	37.0	3.0	LH	40.0	48.0	48.0	60.0	R	right	0.250400000095	14486.0
n/a	n/a	h1	37.0	4.0	LH	42.0	54.0	48.0	60.0	X	right	0.733899999976	14540.0
n/a	n/a	h6	38.0	0.0	HL	77.0	45.0	70.0	40.0	L	left	0.299699999929	14617.0
n/a	n/a	h6	38.0	1.0	HL	68.0	29.0	70.0	40.0	L	left	0.334799999952	14685.0
n/a	n/a	h6	38.0	2.0	HL	71.0	27.0	70.0	40.0	L	left	0.368	14756.0
n/a	n/a	h6	38.0	3.0	HL	82.0	35.0	70.0	40.0	R	right	0.735	14791.0
n/a	n/a	h6	38.0	4.0	HL	64.0	43.0	70.0	40.0	X	left	0.200899999976	14855.0
n/a	n/a	h6	38.0	5.0	HL	56.0	43.0	70.0	40.0	X	left	0.100799999952	14911.0
n/a	n/a	h6	38.0	6.0	HL	73.0	47.0	70.0	40.0	X	left	0.0728000000715	14984.0
n/a	n/a	h6	38.0	7.0	HL	80.0	40.0	70.0	40.0	X	left	0.282800000071	15064.0
n/a	n/a	h6	38.0	8.0	HL	71.0	44.0	70.0	40.0	X	left	0.0853000000716	15135.0
n/a	n/a	h6	38.0	9.0	HL	83.0	48.0	70.0	40.0	X	left	0.134	15218.0
n/a	n/a	h1	39.0	0.0	HL	39.0	32.0	44.0	40.0	L	left	0.484600000024	15257.0
n/a	n/a	h1	39.0	1.0	HL	49.0	52.0	44.0	40.0	L	left	0.208300000072	15306.0
n/a	n/a	h1	39.0	2.0	HL	39.0	32.0	44.0	40.0	L	left	0.257100000024	15345.0
n/a	n/a	h1	39.0	3.0	HL	36.0	47.0	44.0	40.0	R	right	0.650799999952	15392.0
n/a	n/a	h1	39.0	4.0	HL	55.0	46.0	44.0	40.0	X	left	1.48510000002	15447.0
n/a	n/a	h6	40.0	0.0	HL	36.0	38.0	40.0	28.0	L	left	0.384299999952	15483.0
n/a	n/a	h6	40.0	1.0	HL	37.0	27.0	40.0	28.0	L	left	0.55	15520.0
n/a	n/a	h6	40.0	2.0	HL	33.0	23.0	40.0	28.0	R	right	1.05110000002	15543.0
n/a	n/a	h6	40.0	3.0	HL	44.0	40.0	40.0	28.0	R	right	0.334200000048	15583.0
n/a	n/a	h6	40.0	4.0	HL	22.0	36.0	40.0	28.0	X	right	1.93479999995	15619.0
n/a	n/a	h6	40.0	5.0	HL	47.0	30.0	40.0	28.0	X	right	1.15060000002	15649.0
n/a	n/a	h6	40.0	6.0	HL	31.0	16.0	40.0	28.0	X	left	0.450099999905	15680.0
n/a	n/a	h6	40.0	7.0	HL	47.0	34.0	40.0	28.0	X	right	1.46589999998	15714.0
n/a	n/a	h6	40.0	8.0	HL	39.0	20.0	40.0	28.0	X	left	0.257200000048	15753.0
n/a	n/a	h6	40.0	9.0	HL	37.0	36.0	40.0	28.0	X	left	0.467099999905	15790.0
n/a	n/a	h1	41.0	0.0	LH	65.0	58.0	52.0	60.0	L	left	0.367	15855.0
n/a	n/a	h1	41.0	1.0	LH	49.0	64.0	52.0	60.0	L	left	0.467799999952	15904.0
n/a	n/a	h1	41.0	2.0	LH	52.0	73.0	52.0	60.0	R	right	0.234399999976	15977.0
n/a	n/a	h1	41.0	3.0	LH	52.0	64.0	52.0	60.0	R	right	0.383799999952	16041.0
n/a	n/a	h1	41.0	4.0	LH	52.0	62.0	52.0	60.0	X	right	2.1500999999	16103.0
n/a	n/a	h1	42.0	0.0	LH	43.0	75.0	40.0	70.0	R	right	0.583799999952	16178.0
n/a	n/a	h1	42.0	1.0	LH	30.0	80.0	40.0	70.0	R	right	0.451	16258.0
n/a	n/a	h1	42.0	2.0	LH	40.0	70.0	40.0	70.0	R	right	0.634200000048	16328.0
n/a	n/a	h1	42.0	3.0	LH	22.0	65.0	40.0	70.0	L	left	0.753299999952	16350.0
n/a	n/a	h1	42.0	4.0	LH	44.0	86.0	40.0	70.0	X	right	0.891399999976	16436.0
n/a	n/a	h1	43.0	0.0	LH	32.0	50.0	36.0	40.0	L	left	0.333799999952	16468.0
n/a	n/a	h1	43.0	1.0	LH	39.0	44.0	36.0	40.0	R	right	0.266600000024	16512.0
n/a	n/a	h1	43.0	2.0	LH	27.0	48.0	36.0	40.0	L	left	0.350700000048	16539.0
n/a	n/a	h1	43.0	3.0	LH	44.0	31.0	36.0	40.0	L	left	1.4165999999	16583.0
n/a	n/a	h1	43.0	4.0	LH	42.0	45.0	36.0	40.0	X	right	0.767700000048	16628.0
n/a	n/a	h1	44.0	0.0	HL	58.0	57.0	64.0	60.0	L	left	0.403800000071	16686.0
n/a	n/a	h1	44.0	1.0	HL	68.0	62.0	64.0	60.0	R	right	0.416899999976	16748.0
n/a	n/a	h1	44.0	2.0	HL	61.0	75.0	64.0	60.0	L	left	0.3345	16809.0
n/a	n/a	h1	44.0	3.0	HL	44.0	57.0	64.0	60.0	R	right	0.450900000095	16866.0
n/a	n/a	h1	44.0	4.0	HL	65.0	64.0	64.0	60.0	X	left	5.7444000001	16931.0
n/a	n/a	h1	45.0	0.0	HL	75.0	55.0	72.0	60.0	L	left	0.353200000048	17006.0
n/a	n/a	h1	45.0	1.0	HL	69.0	58.0	72.0	60.0	R	right	0.189600000024	17064.0
n/a	n/a	h1	45.0	2.0	HL	62.0	75.0	72.0	60.0	L	left	0.284	17126.0
n/a	n/a	h1	45.0	3.0	HL	69.0	50.0	72.0	60.0	R	right	0.451200000048	17176.0
n/a	n/a	h1	45.0	4.0	HL	60.0	48.0	72.0	60.0	X	left	0.699100000024	17236.0
n/a	n/a	h6	46.0	0.0	LH	72.0	71.0	60.0	64.0	L	left	0.468099999905	17308.0
n/a	n/a	h6	46.0	1.0	LH	49.0	87.0	60.0	64.0	L	left	0.457799999952	17357.0
n/a	n/a	h6	46.0	2.0	LH	61.0	70.0	60.0	64.0	R	right	0.289799999952	17427.0
n/a	n/a	h6	46.0	3.0	LH	61.0	76.0	60.0	64.0	R	right	0.472199999929	17503.0
n/a	n/a	h6	46.0	4.0	LH	70.0	72.0	60.0	64.0	X	right	2.741	17575.0
n/a	n/a	h6	46.0	5.0	LH	69.0	65.0	60.0	64.0	X	right	0.415600000024	17640.0
n/a	n/a	h6	46.0	6.0	LH	60.0	52.0	60.0	64.0	X	right	0.151	17692.0
n/a	n/a	h6	46.0	7.0	LH	63.0	61.0	60.0	64.0	X	right	0.117600000024	17753.0
n/a	n/a	h6	46.0	8.0	LH	58.0	65.0	60.0	64.0	X	right	0.233699999928	17818.0
n/a	n/a	h6	46.0	9.0	LH	54.0	59.0	60.0	64.0	X	right	0.150899999976	17877.0
n/a	n/a	h1	47.0	0.0	HL	65.0	59.0	68.0	60.0	L	left	0.283300000072	17942.0
n/a	n/a	h1	47.0	1.0	HL	57.0	58.0	68.0	60.0	R	right	0.168200000048	18000.0
n/a	n/a	h1	47.0	2.0	HL	54.0	48.0	68.0	60.0	L	left	0.238900000095	18054.0
n/a	n/a	h1	47.0	3.0	HL	70.0	61.0	68.0	60.0	L	left	0.568299999952	18124.0
n/a	n/a	h1	47.0	4.0	HL	67.0	45.0	68.0	60.0	X	left	6.60619999993	18191.0
n/a	n/a	h1	48.0	0.0	HL	67.0	22.0	60.0	30.0	R	right	0.668299999952	18213.0
n/a	n/a	h1	48.0	1.0	HL	55.0	38.0	60.0	30.0	R	right	0.334400000095	18251.0
n/a	n/a	h1	48.0	2.0	HL	83.0	34.0	60.0	30.0	R	right	0.232699999929	18285.0
n/a	n/a	h1	48.0	3.0	HL	67.0	27.0	60.0	30.0	L	left	0.278199999928	18352.0
n/a	n/a	h1	48.0	4.0	HL	70.0	16.0	60.0	30.0	X	left	0.27	18422.0
n/a	n/a	h6	49.0	0.0	HL	77.0	45.0	70.0	40.0	L	left	0.255899999976	18499.0
n/a	n/a	h6	49.0	1.0	HL	68.0	29.0	70.0	40.0	L	left	0.467600000024	18567.0
n/a	n/a	h6	49.0	2.0	HL	71.0	27.0	70.0	40.0	L	left	0.295200000048	18638.0
n/a	n/a	h6	49.0	3.0	HL	82.0	35.0	70.0	40.0	R	right	0.299800000072	18673.0
n/a	n/a	h6	49.0	4.0	HL	72.0	23.0	70.0	40.0	X	left	3.97079999995	18745.0
n/a	n/a	h6	49.0	5.0	HL	74.0	31.0	70.0	40.0	X	left	0.283699999929	18819.0
n/a	n/a	h6	49.0	6.0	HL	86.0	53.0	70.0	40.0	X	left	0.100299999952	18905.0
n/a	n/a	h6	49.0	7.0	HL	68.0	32.0	70.0	40.0	X	left	0.167	18973.0
n/a	n/a	h6	49.0	8.0	HL	64.0	27.0	70.0	40.0	X	left	0.105200000048	19037.0
n/a	n/a	h6	49.0	9.0	HL	67.0	43.0	70.0	40.0	X	left	0.118200000048	19104.0
n/a	n/a	h6	50.0	0.0	HL	96.0	65.0	90.0	60.0	L	left	0.217700000048	19200.0
n/a	n/a	h6	50.0	1.0	HL	88.0	57.0	90.0	60.0	L	left	0.816899999976	19288.0
n/a	n/a	h6	50.0	2.0	HL	84.0	59.0	90.0	60.0	R	right	1.1670999999	19347.0
n/a	n/a	h6	50.0	3.0	HL	76.0	67.0	90.0	60.0	R	right	0.6555	19414.0
n/a	n/a	h6	50.0	4.0	HL	89.0	66.0	90.0	60.0	X	left	1.16779999995	19503.0
n/a	n/a	h6	50.0	5.0	HL	99.0	61.0	90.0	60.0	X	left	0.1175	19602.0
n/a	n/a	h6	50.0	6.0	HL	84.0	67.0	90.0	60.0	X	left	0.0672000000477	19686.0
n/a	n/a	h6	50.0	7.0	HL	91.0	70.0	90.0	60.0	X	left	0.768199999928	19777.0
n/a	n/a	h6	50.0	8.0	HL	85.0	51.0	90.0	60.0	X	left	0.199699999928	19862.0
n/a	n/a	h6	50.0	9.0	HL	83.0	72.0	90.0	60.0	X	left	0.0836999999285	19945.0
n/a	n/a	h6	51.0	0.0	HL	55.0	61.0	60.0	52.0	R	right	0.650099999905	20006.0
n/a	n/a	h6	51.0	1.0	HL	60.0	43.0	60.0	52.0	L	left	0.183899999976	20066.0
n/a	n/a	h6	51.0	2.0	HL	65.0	62.0	60.0	52.0	L	left	0.3505	20131.0
n/a	n/a	h6	51.0	3.0	HL	53.0	67.0	60.0	52.0	R	right	0.234899999976	20198.0
n/a	n/a	h6	51.0	4.0	HL	52.0	57.0	60.0	52.0	X	right	1.82420000005	20255.0
n/a	n/a	h6	51.0	5.0	HL	78.0	49.0	60.0	52.0	X	left	0.552099999905	20333.0
n/a	n/a	h6	51.0	6.0	HL	44.0	51.0	60.0	52.0	X	left	0.321699999928	20377.0
n/a	n/a	h6	51.0	7.0	HL	59.0	44.0	60.0	52.0	X	left	0.551700000048	20436.0
n/a	n/a	h6	51.0	8.0	HL	60.0	42.0	60.0	52.0	X	right	0.337700000048	20478.0
n/a	n/a	h6	51.0	9.0	HL	59.0	52.0	60.0	52.0	X	left	0.301600000024	20537.0
n/a	n/a	h6	52.0	0.0	LH	40.0	38.0	40.0	48.0	L	left	0.352200000048	20577.0
n/a	n/a	h6	52.0	1.0	LH	37.0	44.0	40.0	48.0	L	left	0.299600000024	20614.0
n/a	n/a	h6	52.0	2.0	LH	60.0	44.0	40.0	48.0	R	right	3.45389999998	20658.0
n/a	n/a	h6	52.0	3.0	LH	42.0	52.0	40.0	48.0	R	right	5.32060000002	20710.0
n/a	n/a	h6	52.0	4.0	LH	31.0	59.0	40.0	48.0	X	right	0.702299999952	20769.0
n/a	n/a	h6	52.0	5.0	LH	39.0	40.0	40.0	48.0	X	right	0.284399999976	20809.0
n/a	n/a	h6	52.0	6.0	LH	43.0	47.0	40.0	48.0	X	right	0.100799999952	20856.0
n/a	n/a	h6	52.0	7.0	LH	50.0	47.0	40.0	48.0	X	right	0.1045	20903.0
n/a	n/a	h6	52.0	8.0	LH	55.0	41.0	40.0	48.0	X	right	0.134399999976	20944.0
n/a	n/a	h6	52.0	9.0	LH	34.0	45.0	40.0	48.0	X	right	0.1345	20989.0
n/a	n/a	h6	53.0	0.0	LH	19.0	45.0	30.0	60.0	R	right	0.752799999952	21034.0
n/a	n/a	h6	53.0	1.0	LH	39.0	62.0	30.0	60.0	L	left	0.1875	21073.0
n/a	n/a	h6	53.0	2.0	LH	24.0	65.0	30.0	60.0	L	left	0.452600000024	21097.0
n/a	n/a	h6	53.0	3.0	LH	42.0	55.0	30.0	60.0	L	left	0.317700000048	21139.0
n/a	n/a	h6	53.0	4.0	LH	37.0	72.0	30.0	60.0	X	right	0.300600000024	21211.0
n/a	n/a	h6	53.0	5.0	LH	31.0	61.0	30.0	60.0	X	right	0.467899999976	21272.0
n/a	n/a	h6	53.0	6.0	LH	33.0	50.0	30.0	60.0	X	right	0.308700000048	21322.0
n/a	n/a	h6	53.0	7.0	LH	29.0	88.0	30.0	60.0	X	right	0.337400000095	21410.0
n/a	n/a	h6	53.0	8.0	LH	11.0	62.0	30.0	60.0	X	right	0.301	21472.0
n/a	n/a	h6	53.0	9.0	LH	44.0	70.0	30.0	60.0	X	right	0.4905	21542.0
n/a	n/a	h6	54.0	0.0	HL	36.0	38.0	40.0	28.0	L	left	0.467299999953	21578.0
n/a	n/a	h6	54.0	1.0	HL	37.0	27.0	40.0	28.0	L	left	0.336899999976	21615.0
n/a	n/a	h6	54.0	2.0	HL	33.0	23.0	40.0	28.0	R	right	0.268199999929	21638.0
n/a	n/a	h6	54.0	3.0	HL	44.0	40.0	40.0	28.0	R	right	0.234600000024	21678.0
n/a	n/a	h6	54.0	4.0	HL	27.0	30.0	40.0	28.0	X	left	1.535	21705.0
n/a	n/a	h6	54.0	5.0	HL	41.0	28.0	40.0	28.0	X	right	0.401200000048	21733.0
n/a	n/a	h6	54.0	6.0	HL	45.0	35.0	40.0	28.0	X	right	1.25420000005	21768.0
n/a	n/a	h6	54.0	7.0	HL	44.0	28.0	40.0	28.0	X	left	0.485	21812.0
n/a	n/a	h6	54.0	8.0	HL	42.0	30.0	40.0	28.0	X	left	0.473899999976	21854.0
n/a	n/a	h6	54.0	9.0	HL	45.0	31.0	40.0	28.0	X	left	0.367300000072	21899.0
n/a	n/a	h1	55.0	0.0	LH	40.0	64.0	40.0	52.0	L	left	0.7015	21939.0
n/a	n/a	h1	55.0	1.0	LH	44.0	52.0	40.0	52.0	L	left	0.318299999952	21983.0
n/a	n/a	h1	55.0	2.0	LH	40.0	48.0	40.0	52.0	R	right	0.301399999976	22031.0
n/a	n/a	h1	55.0	3.0	LH	58.0	62.0	40.0	52.0	L	left	0.334200000048	22089.0
n/a	n/a	h1	55.0	4.0	LH	34.0	58.0	40.0	52.0	X	left	3.41979999995	22123.0
n/a	n/a	h6	56.0	0.0	HL	60.0	56.0	60.0	52.0	R	right	0.535200000048	22179.0
n/a	n/a	h6	56.0	1.0	HL	67.0	49.0	60.0	52.0	L	left	0.186600000024	22246.0
n/a	n/a	h6	56.0	2.0	HL	67.0	51.0	60.0	52.0	R	right	0.2025	22297.0
n/a	n/a	h6	56.0	3.0	HL	69.0	45.0	60.0	52.0	R	right	0.635399999976	22342.0
n/a	n/a	h6	56.0	4.0	HL	70.0	78.0	60.0	52.0	X	left	0.802	22412.0
n/a	n/a	h6	56.0	5.0	HL	55.0	45.0	60.0	52.0	X	left	0.316399999976	22467.0
n/a	n/a	h6	56.0	6.0	HL	75.0	51.0	60.0	52.0	X	left	0.150600000024	22542.0
n/a	n/a	h6	56.0	7.0	HL	66.0	67.0	60.0	52.0	X	left	0.100099999905	22608.0
n/a	n/a	h6	56.0	8.0	HL	61.0	59.0	60.0	52.0	X	left	0.760300000072	22669.0
n/a	n/a	h6	56.0	9.0	HL	60.0	63.0	60.0	52.0	X	left	0.100299999952	22729.0
n/a	n/a	h6	57.0	0.0	HL	39.0	36.0	40.0	36.0	R	right	0.488899999976	22765.0
n/a	n/a	h6	57.0	1.0	HL	31.0	21.0	40.0	36.0	R	right	0.400399999976	22786.0
n/a	n/a	h6	57.0	2.0	HL	46.0	27.0	40.0	36.0	L	left	0.301200000048	22832.0
n/a	n/a	h6	57.0	3.0	HL	26.0	50.0	40.0	36.0	L	left	0.417399999976	22858.0
n/a	n/a	h6	57.0	4.0	HL	46.0	20.0	40.0	36.0	X	left	0.5865	22904.0
n/a	n/a	h6	57.0	5.0	HL	45.0	22.0	40.0	36.0	X	right	1.60289999998	22926.0
n/a	n/a	h6	57.0	6.0	HL	31.0	42.0	40.0	36.0	X	left	0.401100000024	22957.0
n/a	n/a	h6	57.0	7.0	HL	40.0	31.0	40.0	36.0	X	left	0.134	22997.0
n/a	n/a	h6	57.0	8.0	HL	49.0	43.0	40.0	36.0	X	left	0.151299999952	23046.0
n/a	n/a	h6	57.0	9.0	HL	35.0	38.0	40.0	36.0	X	left	0.0838000000715	23081.0
n/a	n/a	h1	58.0	0.0	HL	58.0	57.0	64.0	60.0	L	left	0.483799999952	23139.0
n/a	n/a	h1	58.0	1.0	HL	68.0	62.0	64.0	60.0	R	right	0.234899999976	23201.0
n/a	n/a	h1	58.0	2.0	HL	61.0	75.0	64.0	60.0	L	left	0.153800000071	23262.0
n/a	n/a	h1	58.0	3.0	HL	44.0	57.0	64.0	60.0	R	right	1.15780000007	23319.0
n/a	n/a	h1	58.0	4.0	HL	75.0	52.0	64.0	60.0	X	left	3.60319999993	23394.0
n/a	n/a	h6	59.0	0.0	LH	19.0	45.0	30.0	60.0	R	right	0.867900000095	23439.0
n/a	n/a	h6	59.0	1.0	LH	39.0	62.0	30.0	60.0	L	left	0.219700000048	23478.0
n/a	n/a	h6	59.0	2.0	LH	24.0	65.0	30.0	60.0	L	left	0.365699999928	23502.0
n/a	n/a	h6	59.0	3.0	LH	42.0	55.0	30.0	60.0	L	left	0.2495	23544.0
n/a	n/a	h6	59.0	4.0	LH	40.0	55.0	30.0	60.0	X	right	2.1329000001	23599.0
n/a	n/a	h6	59.0	5.0	LH	23.0	71.0	30.0	60.0	X	right	0.385299999952	23670.0
n/a	n/a	h6	59.0	6.0	LH	25.0	65.0	30.0	60.0	X	right	0.068399999976	23735.0
n/a	n/a	h6	59.0	7.0	LH	28.0	55.0	30.0	60.0	X	right	0.0174999999999	23790.0
n/a	n/a	h6	59.0	8.0	LH	17.0	65.0	30.0	60.0	X	right	0.0510999999046	23855.0
n/a	n/a	h6	59.0	9.0	LH	30.0	64.0	30.0	60.0	X	right	0.100800000072	23919.0
n/a	n/a	h6	60.0	0.0	LH	69.0	46.0	56.0	60.0	R	right	2.3225	23965.0
n/a	n/a	h6	60.0	1.0	LH	65.0	53.0	56.0	60.0	L	left	0.235100000024	24030.0
n/a	n/a	h6	60.0	2.0	LH	57.0	59.0	56.0	60.0	L	left	0.324399999976	24087.0
n/a	n/a	h6	60.0	3.0	LH	62.0	60.0	56.0	60.0	L	left	0.233600000024	24149.0
n/a	n/a	h6	60.0	4.0	LH	57.0	51.0	56.0	60.0	X	left	0.299899999976	24206.0
n/a	n/a	h6	60.0	5.0	LH	58.0	50.0	56.0	60.0	X	left	0.999399999976	24264.0
n/a	n/a	h6	60.0	6.0	LH	54.0	48.0	56.0	60.0	X	left	0.0171000000239	24318.0
n/a	n/a	h6	60.0	7.0	LH	64.0	68.0	56.0	60.0	X	left	0.0335	24382.0
n/a	n/a	h6	60.0	8.0	LH	55.0	54.0	56.0	60.0	X	left	0.284600000024	24437.0
n/a	n/a	h6	60.0	9.0	LH	44.0	62.0	56.0	60.0	X	left	0.0513999999762	24481.0
n/a	n/a	h1	61.0	0.0	HL	57.0	35.0	60.0	40.0	L	left	0.250899999976	24538.0
n/a	n/a	h1	61.0	1.0	HL	63.0	50.0	60.0	40.0	R	right	0.116899999976	24588.0
n/a	n/a	h1	61.0	2.0	HL	57.0	53.0	60.0	40.0	L	left	0.152	24645.0
n/a	n/a	h1	61.0	3.0	HL	54.0	48.0	60.0	40.0	R	right	0.339699999928	24693.0
n/a	n/a	h1	61.0	4.0	HL	58.0	42.0	60.0	40.0	X	left	0.358700000048	24751.0
n/a	n/a	h6	62.0	0.0	HL	60.0	56.0	60.0	52.0	R	right	0.284799999952	24807.0
n/a	n/a	h6	62.0	1.0	HL	67.0	49.0	60.0	52.0	L	left	0.154199999929	24874.0
n/a	n/a	h6	62.0	2.0	HL	67.0	51.0	60.0	52.0	R	right	0.221	24925.0
n/a	n/a	h6	62.0	3.0	HL	69.0	45.0	60.0	52.0	R	right	0.400600000024	24970.0
n/a	n/a	h6	62.0	4.0	HL	57.0	49.0	60.0	52.0	X	right	3.45360000002	25019.0
n/a	n/a	h6	62.0	5.0	HL	62.0	39.0	60.0	52.0	X	right	0.117900000095	25058.0
n/a	n/a	h6	62.0	6.0	HL	42.0	47.0	60.0	52.0	X	right	0.0548000000715	25105.0
n/a	n/a	h6	62.0	7.0	HL	69.0	36.0	60.0	52.0	X	right	0.565800000071	25141.0
n/a	n/a	h6	62.0	8.0	HL	62.0	53.0	60.0	52.0	X	right	0.184299999952	25194.0
n/a	n/a	h6	62.0	9.0	HL	58.0	56.0	60.0	52.0	X	right	0.400399999976	25250.0
n/a	n/a	h6	63.0	0.0	LH	53.0	77.0	60.0	80.0	L	left	1.74189999998	25303.0
n/a	n/a	h6	63.0	1.0	LH	60.0	78.0	60.0	80.0	L	left	0.3675	25363.0
n/a	n/a	h6	63.0	2.0	LH	58.0	68.0	60.0	80.0	L	left	7.706	25421.0
n/a	n/a	h6	63.0	3.0	LH	57.0	67.0	60.0	80.0	R	right	0.501299999952	25488.0
n/a	n/a	h6	63.0	4.0	LH	64.0	82.0	60.0	80.0	X	right	1.40139999998	25570.0
n/a	n/a	h6	63.0	5.0	LH	65.0	89.0	60.0	80.0	X	right	0.150600000024	25659.0
n/a	n/a	h6	63.0	6.0	LH	58.0	72.0	60.0	80.0	X	right	0.191	25731.0
n/a	n/a	h6	63.0	7.0	LH	56.0	73.0	60.0	80.0	X	right	0.0340000000001	25804.0
n/a	n/a	h6	63.0	8.0	LH	59.0	91.0	60.0	80.0	X	right	0.118399999976	25895.0
n/a	n/a	h6	63.0	9.0	LH	48.0	81.0	60.0	80.0	X	right	0.117599999905	25976.0
n/a	n/a	h1	64.0	0.0	LH	25.0	38.0	32.0	40.0	L	left	0.501300000072	26001.0
n/a	n/a	h1	64.0	1.0	LH	29.0	57.0	32.0	40.0	L	left	0.273399999976	26030.0
n/a	n/a	h1	64.0	2.0	LH	44.0	23.0	32.0	40.0	R	right	0.317299999952	26053.0
n/a	n/a	h1	64.0	3.0	LH	36.0	31.0	32.0	40.0	L	left	1.36770000005	26089.0
n/a	n/a	h1	64.0	4.0	LH	14.0	47.0	32.0	40.0	X	left	0.267199999928	26103.0
n/a	n/a	h6	65.0	0.0	LH	44.0	39.0	40.0	48.0	R	right	0.333600000024	26142.0
n/a	n/a	h6	65.0	1.0	LH	50.0	55.0	40.0	48.0	R	right	0.2745	26197.0
n/a	n/a	h6	65.0	2.0	LH	53.0	56.0	40.0	48.0	L	left	0.304599999905	26250.0
n/a	n/a	h6	65.0	3.0	LH	49.0	58.0	40.0	48.0	R	right	0.250899999976	26308.0
n/a	n/a	h6	65.0	4.0	LH	37.0	38.0	40.0	48.0	X	right	1.65220000005	26346.0
n/a	n/a	h6	65.0	5.0	LH	46.0	28.0	40.0	48.0	X	left	0.504699999929	26392.0
n/a	n/a	h6	65.0	6.0	LH	44.0	50.0	40.0	48.0	X	left	0.487200000048	26436.0
n/a	n/a	h6	65.0	7.0	LH	51.0	64.0	40.0	48.0	X	left	0.487400000095	26487.0
n/a	n/a	h6	65.0	8.0	LH	36.0	56.0	40.0	48.0	X	left	0.384100000024	26523.0
n/a	n/a	h6	65.0	9.0	LH	47.0	42.0	40.0	48.0	X	left	0.466299999952	26570.0
n/a	n/a	h6	66.0	0.0	HL	28.0	15.0	40.0	20.0	L	left	0.451100000024	26598.0
n/a	n/a	h6	66.0	1.0	HL	53.0	16.0	40.0	20.0	L	left	0.484600000024	26651.0
n/a	n/a	h6	66.0	2.0	HL	55.0	28.0	40.0	20.0	L	left	0.284100000024	26706.0
n/a	n/a	h6	66.0	3.0	HL	53.0	28.0	40.0	20.0	R	right	0.335	26734.0
n/a	n/a	h6	66.0	4.0	HL	40.0	24.0	40.0	20.0	X	left	0.684899999976	26774.0
n/a	n/a	h6	66.0	5.0	HL	52.0	24.0	40.0	20.0	X	left	0.717100000024	26826.0
n/a	n/a	h6	66.0	6.0	HL	34.0	16.0	40.0	20.0	X	left	0.383600000024	26860.0
n/a	n/a	h6	66.0	7.0	HL	24.0	24.0	40.0	20.0	X	left	1.28460000002	26884.0
n/a	n/a	h6	66.0	8.0	HL	40.0	23.0	40.0	20.0	X	right	0.667900000095	26907.0
n/a	n/a	h6	66.0	9.0	HL	45.0	21.0	40.0	20.0	X	left	0.287699999928	26952.0
n/a	n/a	h6	67.0	0.0	LH	60.0	79.0	60.0	72.0	R	right	0.320199999928	27031.0
n/a	n/a	h6	67.0	1.0	LH	57.0	66.0	60.0	72.0	R	right	0.388700000047	27097.0
n/a	n/a	h6	67.0	2.0	LH	64.0	65.0	60.0	72.0	L	left	0.4685	27161.0
n/a	n/a	h6	67.0	3.0	LH	63.0	69.0	60.0	72.0	R	right	0.204200000048	27230.0
n/a	n/a	h6	67.0	4.0	LH	65.0	75.0	60.0	72.0	X	right	0.667200000048	27305.0
n/a	n/a	h6	67.0	5.0	LH	52.0	77.0	60.0	72.0	X	right	1.80229999995	27382.0
n/a	n/a	h6	67.0	6.0	LH	73.0	86.0	60.0	72.0	X	right	0.300399999976	27468.0
n/a	n/a	h6	67.0	7.0	LH	66.0	80.0	60.0	72.0	X	right	0.0503999999762	27548.0
n/a	n/a	h6	67.0	8.0	LH	57.0	73.0	60.0	72.0	X	right	0.034100000024	27621.0
n/a	n/a	h6	67.0	9.0	LH	60.0	75.0	60.0	72.0	X	right	0.19	27696.0
n/a	n/a	h1	68.0	0.0	LH	45.0	56.0	40.0	60.0	R	right	0.266900000095	27752.0
n/a	n/a	h1	68.0	1.0	LH	29.0	52.0	40.0	60.0	R	right	0.367	27804.0
n/a	n/a	h1	68.0	2.0	LH	47.0	60.0	40.0	60.0	R	right	1.16770000005	27864.0
n/a	n/a	h1	68.0	3.0	LH	36.0	57.0	40.0	60.0	L	left	0.558200000048	27900.0
n/a	n/a	h1	68.0	4.0	LH	41.0	51.0	40.0	60.0	X	right	1.1215	27951.0
n/a	n/a	h6	69.0	0.0	LH	25.0	48.0	20.0	40.0	L	left	1.06910000002	27976.0
n/a	n/a	h6	69.0	1.0	LH	20.0	48.0	20.0	40.0	R	right	0.1675	28024.0
n/a	n/a	h6	69.0	2.0	LH	8.0	28.0	20.0	40.0	R	right	0.317199999929	28052.0
n/a	n/a	h6	69.0	3.0	LH	22.0	33.0	20.0	40.0	L	left	0.2675	28074.0
n/a	n/a	h6	69.0	4.0	LH	22.0	50.0	20.0	40.0	X	right	1.53179999995	28124.0
n/a	n/a	h6	69.0	5.0	LH	24.0	35.0	20.0	40.0	X	right	0.2685	28159.0
n/a	n/a	h6	69.0	6.0	LH	14.0	40.0	20.0	40.0	X	right	0.1175	28199.0
n/a	n/a	h6	69.0	7.0	LH	27.0	49.0	20.0	40.0	X	right	0.0511000000238	28248.0
n/a	n/a	h6	69.0	8.0	LH	31.0	37.0	20.0	40.0	X	right	0.067	28285.0
n/a	n/a	h6	69.0	9.0	LH	26.0	57.0	20.0	40.0	X	right	0.00130000007152	28342.0
n/a	n/a	h1	70.0	0.0	LH	32.0	76.0	40.0	60.0	L	left	0.401600000024	28374.0
n/a	n/a	h1	70.0	1.0	LH	37.0	65.0	40.0	60.0	R	right	0.201399999976	28439.0
n/a	n/a	h1	70.0	2.0	LH	46.0	68.0	40.0	60.0	L	left	0.206899999976	28485.0
n/a	n/a	h1	70.0	3.0	LH	37.0	69.0	40.0	60.0	R	right	0.7685	28554.0
n/a	n/a	h1	70.0	4.0	LH	31.0	55.0	40.0	60.0	X	right	0.401399999976	28609.0
n/a	n/a	h1	71.0	0.0	LH	48.0	67.0	40.0	70.0	R	right	0.375300000072	28676.0
n/a	n/a	h1	71.0	1.0	LH	47.0	62.0	40.0	70.0	L	left	0.183699999929	28723.0
n/a	n/a	h1	71.0	2.0	LH	39.0	62.0	40.0	70.0	R	right	0.151300000072	28785.0
n/a	n/a	h1	71.0	3.0	LH	50.0	65.0	40.0	70.0	L	left	0.234799999952	28835.0
n/a	n/a	h1	71.0	4.0	LH	31.0	64.0	40.0	70.0	X	right	0.2505	28899.0
n/a	n/a	h1	72.0	0.0	LH	32.0	50.0	36.0	40.0	L	left	0.291099999905	28931.0
n/a	n/a	h1	72.0	1.0	LH	39.0	44.0	36.0	40.0	R	right	0.184600000024	28975.0
n/a	n/a	h1	72.0	2.0	LH	27.0	48.0	36.0	40.0	L	left	0.184399999976	29002.0
n/a	n/a	h1	72.0	3.0	LH	44.0	31.0	36.0	40.0	L	left	2.1395	29046.0
n/a	n/a	h1	72.0	4.0	LH	32.0	33.0	36.0	40.0	X	right	0.236800000072	29079.0
n/a	n/a	h1	73.0	0.0	LH	31.0	44.0	28.0	40.0	R	right	0.935800000072	29123.0
n/a	n/a	h1	73.0	1.0	LH	27.0	39.0	28.0	40.0	L	left	0.170299999952	29150.0
n/a	n/a	h1	73.0	2.0	LH	25.0	54.0	28.0	40.0	R	right	0.251	29204.0
n/a	n/a	h1	73.0	3.0	LH	29.0	30.0	28.0	40.0	L	left	0.251600000024	29233.0
n/a	n/a	h1	73.0	4.0	LH	26.0	45.0	28.0	40.0	X	right	0.750799999952	29278.0
n/a	n/a	h1	74.0	0.0	LH	51.0	75.0	48.0	60.0	R	right	0.4085	29353.0
n/a	n/a	h1	74.0	1.0	LH	58.0	57.0	48.0	60.0	R	right	0.284299999952	29410.0
n/a	n/a	h1	74.0	2.0	LH	46.0	58.0	48.0	60.0	L	left	0.469199999928	29456.0
n/a	n/a	h1	74.0	3.0	LH	40.0	48.0	48.0	60.0	R	right	0.534100000024	29504.0
n/a	n/a	h1	74.0	4.0	LH	29.0	51.0	48.0	60.0	X	right	2.28239999998	29555.0
n/a	n/a	h1	75.0	0.0	LH	66.0	43.0	56.0	60.0	L	left	0.818099999904	29621.0
n/a	n/a	h1	75.0	1.0	LH	33.0	67.0	56.0	60.0	R	right	0.185	29688.0
n/a	n/a	h1	75.0	2.0	LH	42.0	59.0	56.0	60.0	L	left	0.2015	29730.0
n/a	n/a	h1	75.0	3.0	LH	55.0	64.0	56.0	60.0	R	right	0.434	29794.0
n/a	n/a	h1	75.0	4.0	LH	58.0	59.0	56.0	60.0	X	right	2.00239999998	29853.0
n/a	n/a	h6	76.0	0.0	HL	55.0	61.0	60.0	52.0	R	right	0.317600000024	29914.0
n/a	n/a	h6	76.0	1.0	HL	60.0	43.0	60.0	52.0	L	left	0.184399999976	29974.0
n/a	n/a	h6	76.0	2.0	HL	65.0	62.0	60.0	52.0	L	left	0.401199999929	30039.0
n/a	n/a	h6	76.0	3.0	HL	53.0	67.0	60.0	52.0	R	right	0.341	30106.0
n/a	n/a	h6	76.0	4.0	HL	61.0	57.0	60.0	52.0	X	right	1.15270000005	30163.0
n/a	n/a	h6	76.0	5.0	HL	59.0	41.0	60.0	52.0	X	left	2.36939999998	30222.0
n/a	n/a	h6	76.0	6.0	HL	42.0	45.0	60.0	52.0	X	right	0.334300000071	30267.0
n/a	n/a	h6	76.0	7.0	HL	60.0	45.0	60.0	52.0	X	left	0.384100000024	30327.0
n/a	n/a	h6	76.0	8.0	HL	64.0	53.0	60.0	52.0	X	left	0.286800000071	30391.0
n/a	n/a	h6	76.0	9.0	HL	56.0	38.0	60.0	52.0	X	left	0.3175	30447.0
n/a	n/a	h1	77.0	0.0	LH	65.0	58.0	52.0	60.0	L	left	0.300399999976	30512.0
n/a	n/a	h1	77.0	1.0	LH	49.0	64.0	52.0	60.0	L	left	0.335700000048	30561.0
n/a	n/a	h1	77.0	2.0	LH	52.0	73.0	52.0	60.0	R	right	0.3345	30634.0
n/a	n/a	h1	77.0	3.0	LH	52.0	64.0	52.0	60.0	R	right	0.717300000072	30698.0
n/a	n/a	h1	77.0	4.0	LH	57.0	61.0	52.0	60.0	X	right	0.633899999976	30759.0
n/a	n/a	h6	78.0	0.0	LH	60.0	79.0	60.0	72.0	R	right	0.2525	30838.0
n/a	n/a	h6	78.0	1.0	LH	57.0	66.0	60.0	72.0	R	right	0.401100000024	30904.0
n/a	n/a	h6	78.0	2.0	LH	64.0	65.0	60.0	72.0	L	left	0.353100000024	30968.0
n/a	n/a	h6	78.0	3.0	LH	63.0	69.0	60.0	72.0	R	right	0.317200000048	31037.0
n/a	n/a	h6	78.0	4.0	LH	67.0	90.0	60.0	72.0	X	right	3.06760000002	31127.0
n/a	n/a	h6	78.0	5.0	LH	56.0	63.0	60.0	72.0	X	right	0.435	31190.0
n/a	n/a	h6	78.0	6.0	LH	53.0	64.0	60.0	72.0	X	right	0.1005	31254.0
n/a	n/a	h6	78.0	7.0	LH	65.0	72.0	60.0	72.0	X	right	0.0866999999284	31326.0
n/a	n/a	h6	78.0	8.0	LH	54.0	66.0	60.0	72.0	X	right	0.684100000024	31392.0
n/a	n/a	h6	78.0	9.0	LH	63.0	62.0	60.0	72.0	X	right	0.152800000071	31454.0
n/a	n/a	h1	79.0	0.0	LH	45.0	56.0	40.0	60.0	R	right	0.418100000024	31510.0
n/a	n/a	h1	79.0	1.0	LH	29.0	52.0	40.0	60.0	R	right	0.484399999976	31562.0
n/a	n/a	h1	79.0	2.0	LH	47.0	60.0	40.0	60.0	R	right	0.250699999928	31622.0
n/a	n/a	h1	79.0	3.0	LH	36.0	57.0	40.0	60.0	L	left	3.36939999998	31658.0
n/a	n/a	h1	79.0	4.0	LH	31.0	50.0	40.0	60.0	X	right	0.684600000024	31708.0
