onset	duration	trial_type	trial_number	bandit_num	mean_type	left_reward	right_reward	left_mean	right_mean	force_pos	response	response_time	points
n/a	n/a	h1	0.0	0.0	LH	40.0	64.0	40.0	52.0	L	left	5.3455999999	40.0
n/a	n/a	h1	0.0	1.0	LH	44.0	52.0	40.0	52.0	L	left	0.267399999857	84.0
n/a	n/a	h1	0.0	2.0	LH	40.0	48.0	40.0	52.0	R	right	0.1555	132.0
n/a	n/a	h1	0.0	3.0	LH	58.0	62.0	40.0	52.0	L	left	0.205299999952	190.0
n/a	n/a	h1	0.0	4.0	LH	52.0	40.0	40.0	52.0	X	left	0.466099999905	242.0
n/a	n/a	h6	1.0	0.0	LH	58.0	58.0	60.0	64.0	R	right	0.354	300.0
n/a	n/a	h6	1.0	1.0	LH	59.0	60.0	60.0	64.0	L	left	0.169599999905	359.0
n/a	n/a	h6	1.0	2.0	LH	61.0	64.0	60.0	64.0	R	right	0.320799999952	423.0
n/a	n/a	h6	1.0	3.0	LH	55.0	56.0	60.0	64.0	R	right	0.285700000048	479.0
n/a	n/a	h6	1.0	4.0	LH	69.0	69.0	60.0	64.0	X	right	0.673300000191	548.0
n/a	n/a	h6	1.0	5.0	LH	58.0	77.0	60.0	64.0	X	right	0.218400000095	625.0
n/a	n/a	h6	1.0	6.0	LH	51.0	47.0	60.0	64.0	X	right	0.182400000095	672.0
n/a	n/a	h6	1.0	7.0	LH	52.0	56.0	60.0	64.0	X	right	0.153400000095	728.0
n/a	n/a	h6	1.0	8.0	LH	62.0	63.0	60.0	64.0	X	right	0.186299999952	791.0
n/a	n/a	h6	1.0	9.0	LH	61.0	72.0	60.0	64.0	X	right	0.405299999952	863.0
n/a	n/a	h1	2.0	0.0	LH	48.0	67.0	40.0	70.0	R	right	0.217200000048	930.0
n/a	n/a	h1	2.0	1.0	LH	47.0	62.0	40.0	70.0	L	left	0.170900000095	977.0
n/a	n/a	h1	2.0	2.0	LH	39.0	62.0	40.0	70.0	R	right	0.187299999952	1039.0
n/a	n/a	h1	2.0	3.0	LH	50.0	65.0	40.0	70.0	L	left	0.299600000143	1089.0
n/a	n/a	h1	2.0	4.0	LH	35.0	67.0	40.0	70.0	X	right	0.771200000048	1156.0
n/a	n/a	h1	3.0	0.0	LH	31.0	44.0	28.0	40.0	R	right	0.218100000143	1200.0
n/a	n/a	h1	3.0	1.0	LH	27.0	39.0	28.0	40.0	L	left	0.185700000048	1227.0
n/a	n/a	h1	3.0	2.0	LH	25.0	54.0	28.0	40.0	R	right	0.267900000095	1281.0
n/a	n/a	h1	3.0	3.0	LH	29.0	30.0	28.0	40.0	L	left	0.434099999905	1310.0
n/a	n/a	h1	3.0	4.0	LH	29.0	47.0	28.0	40.0	X	right	0.3675	1357.0
n/a	n/a	h1	4.0	0.0	HL	67.0	22.0	60.0	30.0	R	right	0.652199999809	1379.0
n/a	n/a	h1	4.0	1.0	HL	55.0	38.0	60.0	30.0	R	right	0.434900000095	1417.0
n/a	n/a	h1	4.0	2.0	HL	83.0	34.0	60.0	30.0	R	right	0.367399999857	1451.0
n/a	n/a	h1	4.0	3.0	HL	67.0	27.0	60.0	30.0	L	left	0.335100000143	1518.0
n/a	n/a	h1	4.0	4.0	HL	64.0	30.0	60.0	30.0	X	left	0.302900000095	1582.0
n/a	n/a	h1	5.0	0.0	HL	75.0	55.0	72.0	60.0	L	left	0.502	1657.0
n/a	n/a	h1	5.0	1.0	HL	69.0	58.0	72.0	60.0	R	right	0.267400000095	1715.0
n/a	n/a	h1	5.0	2.0	HL	62.0	75.0	72.0	60.0	L	left	0.335200000048	1777.0
n/a	n/a	h1	5.0	3.0	HL	69.0	50.0	72.0	60.0	R	right	0.251100000143	1827.0
n/a	n/a	h1	5.0	4.0	HL	81.0	50.0	72.0	60.0	X	left	0.318200000048	1908.0
n/a	n/a	h1	6.0	0.0	HL	60.0	66.0	68.0	60.0	R	right	0.251299999952	1974.0
n/a	n/a	h1	6.0	1.0	HL	76.0	54.0	68.0	60.0	L	left	0.228299999952	2050.0
n/a	n/a	h1	6.0	2.0	HL	62.0	51.0	68.0	60.0	L	left	0.2515	2112.0
n/a	n/a	h1	6.0	3.0	HL	57.0	44.0	68.0	60.0	R	right	0.2055	2156.0
n/a	n/a	h1	6.0	4.0	HL	63.0	47.0	68.0	60.0	X	left	0.368299999952	2219.0
n/a	n/a	h1	7.0	0.0	HL	39.0	32.0	44.0	40.0	L	left	0.453299999952	2258.0
n/a	n/a	h1	7.0	1.0	HL	49.0	52.0	44.0	40.0	L	left	0.307299999952	2307.0
n/a	n/a	h1	7.0	2.0	HL	39.0	32.0	44.0	40.0	L	left	0.274700000048	2346.0
n/a	n/a	h1	7.0	3.0	HL	36.0	47.0	44.0	40.0	R	right	0.191100000143	2393.0
n/a	n/a	h1	7.0	4.0	HL	39.0	37.0	44.0	40.0	X	right	0.7175	2430.0
n/a	n/a	h6	8.0	0.0	HL	96.0	65.0	90.0	60.0	L	left	0.217300000191	2526.0
n/a	n/a	h6	8.0	1.0	HL	88.0	57.0	90.0	60.0	L	left	0.218600000143	2614.0
n/a	n/a	h6	8.0	2.0	HL	84.0	59.0	90.0	60.0	R	right	0.222299999952	2673.0
n/a	n/a	h6	8.0	3.0	HL	76.0	67.0	90.0	60.0	R	right	0.238900000095	2740.0
n/a	n/a	h6	8.0	4.0	HL	99.0	71.0	90.0	60.0	X	left	0.583599999905	2839.0
n/a	n/a	h6	8.0	5.0	HL	92.0	41.0	90.0	60.0	X	left	0.181800000191	2931.0
n/a	n/a	h6	8.0	6.0	HL	81.0	65.0	90.0	60.0	X	left	0.116900000095	3012.0
n/a	n/a	h6	8.0	7.0	HL	95.0	52.0	90.0	60.0	X	left	0.151700000048	3107.0
n/a	n/a	h6	8.0	8.0	HL	90.0	70.0	90.0	60.0	X	left	0.184700000048	3197.0
n/a	n/a	h6	8.0	9.0	HL	99.0	56.0	90.0	60.0	X	left	0.168900000095	3296.0
n/a	n/a	h6	9.0	0.0	HL	39.0	36.0	40.0	36.0	R	right	0.250799999952	3332.0
n/a	n/a	h6	9.0	1.0	HL	31.0	21.0	40.0	36.0	R	right	0.354599999905	3353.0
n/a	n/a	h6	9.0	2.0	HL	46.0	27.0	40.0	36.0	L	left	0.4015	3399.0
n/a	n/a	h6	9.0	3.0	HL	26.0	50.0	40.0	36.0	L	left	0.174600000143	3425.0
n/a	n/a	h6	9.0	4.0	HL	41.0	28.0	40.0	36.0	X	left	1.2729000001	3466.0
n/a	n/a	h6	9.0	5.0	HL	35.0	37.0	40.0	36.0	X	right	0.2865	3503.0
n/a	n/a	h6	9.0	6.0	HL	36.0	38.0	40.0	36.0	X	right	0.317399999857	3541.0
n/a	n/a	h6	9.0	7.0	HL	46.0	22.0	40.0	36.0	X	left	0.677	3587.0
n/a	n/a	h6	9.0	8.0	HL	35.0	32.0	40.0	36.0	X	left	0.195700000048	3622.0
n/a	n/a	h6	9.0	9.0	HL	37.0	30.0	40.0	36.0	X	left	0.353299999952	3659.0
n/a	n/a	h1	10.0	0.0	HL	70.0	46.0	60.0	40.0	R	right	0.2535	3705.0
n/a	n/a	h1	10.0	1.0	HL	54.0	36.0	60.0	40.0	R	right	0.276400000095	3741.0
n/a	n/a	h1	10.0	2.0	HL	46.0	26.0	60.0	40.0	R	right	0.284200000048	3767.0
n/a	n/a	h1	10.0	3.0	HL	68.0	32.0	60.0	40.0	L	left	0.267400000095	3835.0
n/a	n/a	h1	10.0	4.0	HL	61.0	46.0	60.0	40.0	X	left	0.2845	3896.0
n/a	n/a	h1	11.0	0.0	HL	30.0	11.0	40.0	10.0	R	right	0.1515	3907.0
n/a	n/a	h1	11.0	1.0	HL	39.0	7.0	40.0	10.0	L	left	0.251700000048	3946.0
n/a	n/a	h1	11.0	2.0	HL	45.0	1.0	40.0	10.0	R	right	0.151700000048	3947.0
n/a	n/a	h1	11.0	3.0	HL	34.0	9.0	40.0	10.0	L	left	0.284200000048	3981.0
n/a	n/a	h1	11.0	4.0	HL	33.0	19.0	40.0	10.0	X	left	0.185399999857	4014.0
n/a	n/a	h6	12.0	0.0	LH	27.0	80.0	30.0	60.0	R	right	0.166799999952	4094.0
n/a	n/a	h6	12.0	1.0	LH	40.0	61.0	30.0	60.0	R	right	0.268300000191	4155.0
n/a	n/a	h6	12.0	2.0	LH	20.0	58.0	30.0	60.0	L	left	0.268200000048	4175.0
n/a	n/a	h6	12.0	3.0	LH	25.0	65.0	30.0	60.0	L	left	0.234799999952	4200.0
n/a	n/a	h6	12.0	4.0	LH	34.0	60.0	30.0	60.0	X	right	0.884200000048	4260.0
n/a	n/a	h6	12.0	5.0	LH	33.0	53.0	30.0	60.0	X	right	0.150600000143	4313.0
n/a	n/a	h6	12.0	6.0	LH	33.0	73.0	30.0	60.0	X	right	0.284200000048	4386.0
n/a	n/a	h6	12.0	7.0	LH	18.0	45.0	30.0	60.0	X	right	0.168899999857	4431.0
n/a	n/a	h6	12.0	8.0	LH	37.0	68.0	30.0	60.0	X	right	0.151700000048	4499.0
n/a	n/a	h6	12.0	9.0	LH	33.0	60.0	30.0	60.0	X	right	0.201399999857	4559.0
n/a	n/a	h6	13.0	0.0	LH	58.0	58.0	60.0	64.0	R	right	0.251200000048	4617.0
n/a	n/a	h6	13.0	1.0	LH	59.0	60.0	60.0	64.0	L	left	0.267700000048	4676.0
n/a	n/a	h6	13.0	2.0	LH	61.0	64.0	60.0	64.0	R	right	0.217799999952	4740.0
n/a	n/a	h6	13.0	3.0	LH	55.0	56.0	60.0	64.0	R	right	0.652700000048	4796.0
n/a	n/a	h6	13.0	4.0	LH	73.0	70.0	60.0	64.0	X	right	0.984799999952	4866.0
n/a	n/a	h6	13.0	5.0	LH	69.0	59.0	60.0	64.0	X	right	0.251200000048	4925.0
n/a	n/a	h6	13.0	6.0	LH	58.0	75.0	60.0	64.0	X	right	0.417200000048	5000.0
n/a	n/a	h6	13.0	7.0	LH	61.0	68.0	60.0	64.0	X	right	0.533900000095	5068.0
n/a	n/a	h6	13.0	8.0	LH	58.0	61.0	60.0	64.0	X	left	0.283899999857	5126.0
n/a	n/a	h6	13.0	9.0	LH	62.0	79.0	60.0	64.0	X	left	0.571700000048	5188.0
n/a	n/a	h6	14.0	0.0	LH	44.0	39.0	40.0	48.0	R	right	0.385	5227.0
n/a	n/a	h6	14.0	1.0	LH	50.0	55.0	40.0	48.0	R	right	0.306299999952	5282.0
n/a	n/a	h6	14.0	2.0	LH	53.0	56.0	40.0	48.0	L	left	0.336900000095	5335.0
n/a	n/a	h6	14.0	3.0	LH	49.0	58.0	40.0	48.0	R	right	0.468200000048	5393.0
n/a	n/a	h6	14.0	4.0	LH	40.0	44.0	40.0	48.0	X	right	0.825299999952	5437.0
n/a	n/a	h6	14.0	5.0	LH	43.0	57.0	40.0	48.0	X	left	0.325600000143	5480.0
n/a	n/a	h6	14.0	6.0	LH	39.0	43.0	40.0	48.0	X	left	0.186400000095	5519.0
n/a	n/a	h6	14.0	7.0	LH	43.0	56.0	40.0	48.0	X	right	0.615	5575.0
n/a	n/a	h6	14.0	8.0	LH	23.0	56.0	40.0	48.0	X	right	0.3105	5631.0
n/a	n/a	h6	14.0	9.0	LH	42.0	49.0	40.0	48.0	X	right	0.217100000143	5680.0
n/a	n/a	h1	15.0	0.0	HL	65.0	59.0	68.0	60.0	L	left	0.360799999952	5745.0
n/a	n/a	h1	15.0	1.0	HL	57.0	58.0	68.0	60.0	R	right	0.184	5803.0
n/a	n/a	h1	15.0	2.0	HL	54.0	48.0	68.0	60.0	L	left	0.284	5857.0
n/a	n/a	h1	15.0	3.0	HL	70.0	61.0	68.0	60.0	L	left	0.618100000143	5927.0
n/a	n/a	h1	15.0	4.0	HL	69.0	51.0	68.0	60.0	X	left	0.525799999952	5996.0
n/a	n/a	h6	16.0	0.0	LH	72.0	71.0	60.0	64.0	L	left	0.590899999857	6068.0
n/a	n/a	h6	16.0	1.0	LH	49.0	87.0	60.0	64.0	L	left	0.561	6117.0
n/a	n/a	h6	16.0	2.0	LH	61.0	70.0	60.0	64.0	R	right	0.277	6187.0
n/a	n/a	h6	16.0	3.0	LH	61.0	76.0	60.0	64.0	R	right	0.317599999905	6263.0
n/a	n/a	h6	16.0	4.0	LH	71.0	66.0	60.0	64.0	X	right	0.369099999905	6329.0
n/a	n/a	h6	16.0	5.0	LH	65.0	59.0	60.0	64.0	X	right	0.243	6388.0
n/a	n/a	h6	16.0	6.0	LH	65.0	50.0	60.0	64.0	X	right	0.0881999998093	6438.0
n/a	n/a	h6	16.0	7.0	LH	56.0	76.0	60.0	64.0	X	right	0.0676999998093	6514.0
n/a	n/a	h6	16.0	8.0	LH	58.0	59.0	60.0	64.0	X	right	0.084600000143	6573.0
n/a	n/a	h6	16.0	9.0	LH	71.0	64.0	60.0	64.0	X	right	0.0660999999046	6637.0
n/a	n/a	h6	17.0	0.0	LH	55.0	58.0	40.0	52.0	L	left	0.217700000048	6692.0
n/a	n/a	h6	17.0	1.0	LH	32.0	39.0	40.0	52.0	R	right	0.200800000191	6731.0
n/a	n/a	h6	17.0	2.0	LH	52.0	53.0	40.0	52.0	L	left	0.233399999857	6783.0
n/a	n/a	h6	17.0	3.0	LH	62.0	54.0	40.0	52.0	R	right	0.168399999857	6837.0
n/a	n/a	h6	17.0	4.0	LH	32.0	60.0	40.0	52.0	X	left	1.7960999999	6869.0
n/a	n/a	h6	17.0	5.0	LH	45.0	51.0	40.0	52.0	X	left	0.637200000048	6914.0
n/a	n/a	h6	17.0	6.0	LH	46.0	54.0	40.0	52.0	X	right	0.191799999952	6968.0
n/a	n/a	h6	17.0	7.0	LH	43.0	58.0	40.0	52.0	X	right	0.186599999905	7026.0
n/a	n/a	h6	17.0	8.0	LH	47.0	61.0	40.0	52.0	X	right	0.166700000048	7087.0
n/a	n/a	h6	17.0	9.0	LH	48.0	45.0	40.0	52.0	X	right	0.185	7132.0
n/a	n/a	h6	18.0	0.0	HL	28.0	15.0	40.0	20.0	L	left	0.261200000048	7160.0
n/a	n/a	h6	18.0	1.0	HL	53.0	16.0	40.0	20.0	L	left	0.351300000191	7213.0
n/a	n/a	h6	18.0	2.0	HL	55.0	28.0	40.0	20.0	L	left	0.317600000143	7268.0
n/a	n/a	h6	18.0	3.0	HL	53.0	28.0	40.0	20.0	R	right	0.2505	7296.0
n/a	n/a	h6	18.0	4.0	HL	53.0	3.0	40.0	20.0	X	left	1.1850999999	7349.0
n/a	n/a	h6	18.0	5.0	HL	40.0	15.0	40.0	20.0	X	left	0.451699999809	7389.0
n/a	n/a	h6	18.0	6.0	HL	45.0	4.0	40.0	20.0	X	right	0.184100000143	7393.0
n/a	n/a	h6	18.0	7.0	HL	41.0	20.0	40.0	20.0	X	left	0.418	7434.0
n/a	n/a	h6	18.0	8.0	HL	43.0	25.0	40.0	20.0	X	left	0.182799999952	7477.0
n/a	n/a	h6	18.0	9.0	HL	47.0	26.0	40.0	20.0	X	left	0.167700000048	7524.0
n/a	n/a	h1	19.0	0.0	LH	66.0	43.0	56.0	60.0	L	left	0.511899999857	7590.0
n/a	n/a	h1	19.0	1.0	LH	33.0	67.0	56.0	60.0	R	right	0.287400000095	7657.0
n/a	n/a	h1	19.0	2.0	LH	42.0	59.0	56.0	60.0	L	left	0.301	7699.0
n/a	n/a	h1	19.0	3.0	LH	55.0	64.0	56.0	60.0	R	right	0.332599999905	7763.0
n/a	n/a	h1	19.0	4.0	LH	47.0	58.0	56.0	60.0	X	right	0.287299999952	7821.0
n/a	n/a	h1	20.0	0.0	LH	25.0	38.0	32.0	40.0	L	left	0.249400000095	7846.0
n/a	n/a	h1	20.0	1.0	LH	29.0	57.0	32.0	40.0	L	left	0.376900000095	7875.0
n/a	n/a	h1	20.0	2.0	LH	44.0	23.0	32.0	40.0	R	right	0.367799999952	7898.0
n/a	n/a	h1	20.0	3.0	LH	36.0	31.0	32.0	40.0	L	left	0.607700000048	7934.0
n/a	n/a	h1	20.0	4.0	LH	39.0	48.0	32.0	40.0	X	left	1.29770000005	7973.0
n/a	n/a	h6	21.0	0.0	HL	43.0	35.0	40.0	28.0	R	right	0.392799999952	8008.0
n/a	n/a	h6	21.0	1.0	HL	31.0	21.0	40.0	28.0	R	right	0.308600000143	8029.0
n/a	n/a	h6	21.0	2.0	HL	40.0	28.0	40.0	28.0	R	right	0.353200000048	8057.0
n/a	n/a	h6	21.0	3.0	HL	36.0	23.0	40.0	28.0	L	left	0.355100000143	8093.0
n/a	n/a	h6	21.0	4.0	HL	40.0	27.0	40.0	28.0	X	left	0.900200000048	8133.0
n/a	n/a	h6	21.0	5.0	HL	46.0	20.0	40.0	28.0	X	left	2.4215999999	8179.0
n/a	n/a	h6	21.0	6.0	HL	50.0	21.0	40.0	28.0	X	left	0.603	8229.0
n/a	n/a	h6	21.0	7.0	HL	41.0	37.0	40.0	28.0	X	left	0.2175	8270.0
n/a	n/a	h6	21.0	8.0	HL	44.0	19.0	40.0	28.0	X	left	0.1675	8314.0
n/a	n/a	h6	21.0	9.0	HL	37.0	25.0	40.0	28.0	X	left	0.152599999905	8351.0
n/a	n/a	h1	22.0	0.0	LH	32.0	76.0	40.0	60.0	L	left	0.251	8383.0
n/a	n/a	h1	22.0	1.0	LH	37.0	65.0	40.0	60.0	R	right	0.335200000048	8448.0
n/a	n/a	h1	22.0	2.0	LH	46.0	68.0	40.0	60.0	L	left	0.809899999857	8494.0
n/a	n/a	h1	22.0	3.0	LH	37.0	69.0	40.0	60.0	R	right	0.165699999809	8563.0
n/a	n/a	h1	22.0	4.0	LH	40.0	53.0	40.0	60.0	X	right	0.175700000048	8616.0
n/a	n/a	h6	23.0	0.0	HL	49.0	36.0	60.0	40.0	L	left	0.2705	8665.0
n/a	n/a	h6	23.0	1.0	HL	68.0	43.0	60.0	40.0	R	right	0.185200000048	8708.0
n/a	n/a	h6	23.0	2.0	HL	55.0	40.0	60.0	40.0	L	left	0.3	8763.0
n/a	n/a	h6	23.0	3.0	HL	67.0	41.0	60.0	40.0	R	right	0.261099999905	8804.0
n/a	n/a	h6	23.0	4.0	HL	49.0	34.0	60.0	40.0	X	left	0.199700000048	8853.0
n/a	n/a	h6	23.0	5.0	HL	57.0	35.0	60.0	40.0	X	left	0.431	8910.0
n/a	n/a	h6	23.0	6.0	HL	55.0	50.0	60.0	40.0	X	left	0.222099999905	8965.0
n/a	n/a	h6	23.0	7.0	HL	54.0	28.0	60.0	40.0	X	left	0.204099999905	9019.0
n/a	n/a	h6	23.0	8.0	HL	66.0	35.0	60.0	40.0	X	left	0.504	9085.0
n/a	n/a	h6	23.0	9.0	HL	54.0	40.0	60.0	40.0	X	left	0.202100000143	9139.0
n/a	n/a	h6	24.0	0.0	LH	40.0	38.0	40.0	48.0	L	left	0.200599999905	9179.0
n/a	n/a	h6	24.0	1.0	LH	37.0	44.0	40.0	48.0	L	left	0.306900000095	9216.0
n/a	n/a	h6	24.0	2.0	LH	60.0	44.0	40.0	48.0	R	right	0.234400000095	9260.0
n/a	n/a	h6	24.0	3.0	LH	42.0	52.0	40.0	48.0	R	right	0.719700000048	9312.0
n/a	n/a	h6	24.0	4.0	LH	52.0	55.0	40.0	48.0	X	left	0.892799999952	9364.0
n/a	n/a	h6	24.0	5.0	LH	46.0	51.0	40.0	48.0	X	left	0.586599999905	9410.0
n/a	n/a	h6	24.0	6.0	LH	50.0	51.0	40.0	48.0	X	right	0.416300000191	9461.0
n/a	n/a	h6	24.0	7.0	LH	47.0	34.0	40.0	48.0	X	left	0.431400000095	9508.0
n/a	n/a	h6	24.0	8.0	LH	30.0	49.0	40.0	48.0	X	right	0.351599999905	9557.0
n/a	n/a	h6	24.0	9.0	LH	29.0	53.0	40.0	48.0	X	right	0.285099999905	9610.0
n/a	n/a	h6	25.0	0.0	LH	25.0	48.0	20.0	40.0	L	left	0.255	9635.0
n/a	n/a	h6	25.0	1.0	LH	20.0	48.0	20.0	40.0	R	right	0.300799999952	9683.0
n/a	n/a	h6	25.0	2.0	LH	8.0	28.0	20.0	40.0	R	right	1.0185	9711.0
n/a	n/a	h6	25.0	3.0	LH	22.0	33.0	20.0	40.0	L	left	0.403400000095	9733.0
n/a	n/a	h6	25.0	4.0	LH	29.0	28.0	20.0	40.0	X	right	0.784100000143	9761.0
n/a	n/a	h6	25.0	5.0	LH	16.0	39.0	20.0	40.0	X	left	0.717600000143	9777.0
n/a	n/a	h6	25.0	6.0	LH	41.0	51.0	20.0	40.0	X	right	0.301199999809	9828.0
n/a	n/a	h6	25.0	7.0	LH	22.0	35.0	20.0	40.0	X	right	0.0848999998569	9863.0
n/a	n/a	h6	25.0	8.0	LH	30.0	50.0	20.0	40.0	X	right	0.134699999809	9913.0
n/a	n/a	h6	25.0	9.0	LH	14.0	34.0	20.0	40.0	X	right	0.121800000191	9947.0
n/a	n/a	h6	26.0	0.0	LH	69.0	46.0	56.0	60.0	R	right	0.620799999952	9993.0
n/a	n/a	h6	26.0	1.0	LH	65.0	53.0	56.0	60.0	L	left	2.95579999995	10058.0
n/a	n/a	h6	26.0	2.0	LH	57.0	59.0	56.0	60.0	L	left	0.601700000048	10115.0
n/a	n/a	h6	26.0	3.0	LH	62.0	60.0	56.0	60.0	L	left	0.2065	10177.0
n/a	n/a	h6	26.0	4.0	LH	50.0	63.0	56.0	60.0	X	left	0.635400000095	10227.0
n/a	n/a	h6	26.0	5.0	LH	55.0	68.0	56.0	60.0	X	left	0.168	10282.0
n/a	n/a	h6	26.0	6.0	LH	59.0	64.0	56.0	60.0	X	left	0.2515	10341.0
n/a	n/a	h6	26.0	7.0	LH	46.0	52.0	56.0	60.0	X	left	0.632900000095	10387.0
n/a	n/a	h6	26.0	8.0	LH	68.0	58.0	56.0	60.0	X	right	0.427599999905	10445.0
n/a	n/a	h6	26.0	9.0	LH	62.0	62.0	56.0	60.0	X	right	0.302199999809	10507.0
n/a	n/a	h1	27.0	0.0	HL	57.0	35.0	60.0	40.0	L	left	0.340799999952	10564.0
n/a	n/a	h1	27.0	1.0	HL	63.0	50.0	60.0	40.0	R	right	0.258099999905	10614.0
n/a	n/a	h1	27.0	2.0	HL	57.0	53.0	60.0	40.0	L	left	0.2875	10671.0
n/a	n/a	h1	27.0	3.0	HL	54.0	48.0	60.0	40.0	R	right	1.00520000005	10719.0
n/a	n/a	h1	27.0	4.0	HL	62.0	36.0	60.0	40.0	X	left	0.254200000048	10781.0
n/a	n/a	h6	28.0	0.0	HL	43.0	35.0	40.0	28.0	R	right	0.251299999952	10816.0
n/a	n/a	h6	28.0	1.0	HL	31.0	21.0	40.0	28.0	R	right	0.684799999952	10837.0
n/a	n/a	h6	28.0	2.0	HL	40.0	28.0	40.0	28.0	R	right	0.341700000048	10865.0
n/a	n/a	h6	28.0	3.0	HL	36.0	23.0	40.0	28.0	L	left	0.451799999952	10901.0
n/a	n/a	h6	28.0	4.0	HL	40.0	18.0	40.0	28.0	X	left	1.94169999981	10941.0
n/a	n/a	h6	28.0	5.0	HL	42.0	29.0	40.0	28.0	X	left	1.06820000005	10983.0
n/a	n/a	h6	28.0	6.0	HL	38.0	28.0	40.0	28.0	X	right	0.338	11011.0
n/a	n/a	h6	28.0	7.0	HL	43.0	25.0	40.0	28.0	X	left	0.5355	11054.0
n/a	n/a	h6	28.0	8.0	HL	43.0	29.0	40.0	28.0	X	left	0.367900000095	11097.0
n/a	n/a	h6	28.0	9.0	HL	45.0	26.0	40.0	28.0	X	left	0.185799999952	11142.0
n/a	n/a	h6	29.0	0.0	LH	55.0	58.0	40.0	52.0	L	left	0.240700000048	11197.0
n/a	n/a	h6	29.0	1.0	LH	32.0	39.0	40.0	52.0	R	right	0.138099999905	11236.0
n/a	n/a	h6	29.0	2.0	LH	52.0	53.0	40.0	52.0	L	left	0.334	11288.0
n/a	n/a	h6	29.0	3.0	LH	62.0	54.0	40.0	52.0	R	right	0.410200000048	11342.0
n/a	n/a	h6	29.0	4.0	LH	37.0	56.0	40.0	52.0	X	left	0.571099999905	11379.0
n/a	n/a	h6	29.0	5.0	LH	45.0	43.0	40.0	52.0	X	left	0.327700000048	11424.0
n/a	n/a	h6	29.0	6.0	LH	22.0	51.0	40.0	52.0	X	left	0.2685	11446.0
n/a	n/a	h6	29.0	7.0	LH	45.0	42.0	40.0	52.0	X	right	0.522	11488.0
n/a	n/a	h6	29.0	8.0	LH	49.0	51.0	40.0	52.0	X	right	0.203200000048	11539.0
n/a	n/a	h6	29.0	9.0	LH	34.0	68.0	40.0	52.0	X	right	0.168799999952	11607.0
n/a	n/a	h1	30.0	0.0	LH	43.0	75.0	40.0	70.0	R	right	0.361	11682.0
n/a	n/a	h1	30.0	1.0	LH	30.0	80.0	40.0	70.0	R	right	0.383800000191	11762.0
n/a	n/a	h1	30.0	2.0	LH	40.0	70.0	40.0	70.0	R	right	0.319700000048	11832.0
n/a	n/a	h1	30.0	3.0	LH	22.0	65.0	40.0	70.0	L	left	0.372599999905	11854.0
n/a	n/a	h1	30.0	4.0	LH	40.0	78.0	40.0	70.0	X	right	0.384399999857	11932.0
n/a	n/a	h1	31.0	0.0	HL	60.0	66.0	68.0	60.0	R	right	0.226600000143	11998.0
n/a	n/a	h1	31.0	1.0	HL	76.0	54.0	68.0	60.0	L	left	0.284799999952	12074.0
n/a	n/a	h1	31.0	2.0	HL	62.0	51.0	68.0	60.0	L	left	0.922599999905	12136.0
n/a	n/a	h1	31.0	3.0	HL	57.0	44.0	68.0	60.0	R	right	0.498099999905	12180.0
n/a	n/a	h1	31.0	4.0	HL	64.0	60.0	68.0	60.0	X	left	0.1845	12244.0
n/a	n/a	h1	32.0	0.0	HL	30.0	11.0	40.0	10.0	R	right	0.267399999857	12255.0
n/a	n/a	h1	32.0	1.0	HL	39.0	7.0	40.0	10.0	L	left	0.351599999905	12294.0
n/a	n/a	h1	32.0	2.0	HL	45.0	1.0	40.0	10.0	R	right	0.306	12295.0
n/a	n/a	h1	32.0	3.0	HL	34.0	9.0	40.0	10.0	L	left	0.718199999809	12329.0
n/a	n/a	h1	32.0	4.0	HL	46.0	17.0	40.0	10.0	X	left	0.348	12375.0
n/a	n/a	h6	33.0	0.0	HL	49.0	36.0	60.0	40.0	L	left	0.410599999905	12424.0
n/a	n/a	h6	33.0	1.0	HL	68.0	43.0	60.0	40.0	R	right	0.202599999905	12467.0
n/a	n/a	h6	33.0	2.0	HL	55.0	40.0	60.0	40.0	L	left	0.268700000048	12522.0
n/a	n/a	h6	33.0	3.0	HL	67.0	41.0	60.0	40.0	R	right	0.335299999952	12563.0
n/a	n/a	h6	33.0	4.0	HL	59.0	49.0	60.0	40.0	X	left	0.642299999952	12622.0
n/a	n/a	h6	33.0	5.0	HL	60.0	28.0	60.0	40.0	X	left	0.331700000048	12682.0
n/a	n/a	h6	33.0	6.0	HL	50.0	48.0	60.0	40.0	X	left	0.257299999952	12732.0
n/a	n/a	h6	33.0	7.0	HL	64.0	50.0	60.0	40.0	X	left	0.365299999952	12796.0
n/a	n/a	h6	33.0	8.0	HL	57.0	31.0	60.0	40.0	X	left	0.222099999905	12853.0
n/a	n/a	h6	33.0	9.0	HL	54.0	45.0	60.0	40.0	X	left	0.359799999952	12907.0
n/a	n/a	h6	34.0	0.0	LH	53.0	77.0	60.0	80.0	L	left	0.270700000048	12960.0
n/a	n/a	h6	34.0	1.0	LH	60.0	78.0	60.0	80.0	L	left	0.334799999952	13020.0
n/a	n/a	h6	34.0	2.0	LH	58.0	68.0	60.0	80.0	L	left	0.272099999905	13078.0
n/a	n/a	h6	34.0	3.0	LH	57.0	67.0	60.0	80.0	R	right	0.3015	13145.0
n/a	n/a	h6	34.0	4.0	LH	66.0	90.0	60.0	80.0	X	right	0.403699999809	13235.0
n/a	n/a	h6	34.0	5.0	LH	81.0	75.0	60.0	80.0	X	right	0.202200000048	13310.0
n/a	n/a	h6	34.0	6.0	LH	67.0	84.0	60.0	80.0	X	right	0.152200000048	13394.0
n/a	n/a	h6	34.0	7.0	LH	62.0	68.0	60.0	80.0	X	right	0.115299999952	13462.0
n/a	n/a	h6	34.0	8.0	LH	72.0	88.0	60.0	80.0	X	right	0.1185	13550.0
n/a	n/a	h6	34.0	9.0	LH	58.0	63.0	60.0	80.0	X	right	0.185	13613.0
n/a	n/a	h6	35.0	0.0	LH	27.0	80.0	30.0	60.0	R	right	0.252200000048	13693.0
n/a	n/a	h6	35.0	1.0	LH	40.0	61.0	30.0	60.0	R	right	0.336099999905	13754.0
n/a	n/a	h6	35.0	2.0	LH	20.0	58.0	30.0	60.0	L	left	0.231700000048	13774.0
n/a	n/a	h6	35.0	3.0	LH	25.0	65.0	30.0	60.0	L	left	0.267900000095	13799.0
n/a	n/a	h6	35.0	4.0	LH	30.0	62.0	30.0	60.0	X	right	0.617900000095	13861.0
n/a	n/a	h6	35.0	5.0	LH	38.0	58.0	30.0	60.0	X	left	0.534399999857	13899.0
n/a	n/a	h6	35.0	6.0	LH	32.0	69.0	30.0	60.0	X	right	0.484400000095	13968.0
n/a	n/a	h6	35.0	7.0	LH	38.0	65.0	30.0	60.0	X	right	0.235799999952	14033.0
n/a	n/a	h6	35.0	8.0	LH	40.0	48.0	30.0	60.0	X	right	0.252200000048	14081.0
n/a	n/a	h6	35.0	9.0	LH	18.0	68.0	30.0	60.0	X	right	0.376200000048	14149.0
n/a	n/a	h1	36.0	0.0	HL	70.0	46.0	60.0	40.0	R	right	0.173100000143	14195.0
n/a	n/a	h1	36.0	1.0	HL	54.0	36.0	60.0	40.0	R	right	0.300900000095	14231.0
n/a	n/a	h1	36.0	2.0	HL	46.0	26.0	60.0	40.0	R	right	0.553700000048	14257.0
n/a	n/a	h1	36.0	3.0	HL	68.0	32.0	60.0	40.0	L	left	0.319	14325.0
n/a	n/a	h1	36.0	4.0	HL	54.0	37.0	60.0	40.0	X	left	0.468899999857	14379.0
n/a	n/a	h1	37.0	0.0	LH	51.0	75.0	48.0	60.0	R	right	0.165400000095	14454.0
n/a	n/a	h1	37.0	1.0	LH	58.0	57.0	48.0	60.0	R	right	0.267700000048	14511.0
n/a	n/a	h1	37.0	2.0	LH	46.0	58.0	48.0	60.0	L	left	0.224299999952	14557.0
n/a	n/a	h1	37.0	3.0	LH	40.0	48.0	48.0	60.0	R	right	0.273599999905	14605.0
n/a	n/a	h1	37.0	4.0	LH	42.0	54.0	48.0	60.0	X	right	0.8395	14659.0
n/a	n/a	h6	38.0	0.0	HL	77.0	45.0	70.0	40.0	L	left	0.301100000143	14736.0
n/a	n/a	h6	38.0	1.0	HL	68.0	29.0	70.0	40.0	L	left	0.333899999857	14804.0
n/a	n/a	h6	38.0	2.0	HL	71.0	27.0	70.0	40.0	L	left	0.188299999952	14875.0
n/a	n/a	h6	38.0	3.0	HL	82.0	35.0	70.0	40.0	R	right	0.251600000143	14910.0
n/a	n/a	h6	38.0	4.0	HL	64.0	43.0	70.0	40.0	X	left	0.324700000048	14974.0
n/a	n/a	h6	38.0	5.0	HL	56.0	43.0	70.0	40.0	X	left	0.170099999905	15030.0
n/a	n/a	h6	38.0	6.0	HL	73.0	47.0	70.0	40.0	X	left	0.282699999809	15103.0
n/a	n/a	h6	38.0	7.0	HL	80.0	40.0	70.0	40.0	X	left	0.303700000048	15183.0
n/a	n/a	h6	38.0	8.0	HL	71.0	44.0	70.0	40.0	X	left	0.4975	15254.0
n/a	n/a	h6	38.0	9.0	HL	83.0	48.0	70.0	40.0	X	left	0.181200000048	15337.0
n/a	n/a	h1	39.0	0.0	HL	39.0	32.0	44.0	40.0	L	left	0.256699999809	15376.0
n/a	n/a	h1	39.0	1.0	HL	49.0	52.0	44.0	40.0	L	left	0.321099999905	15425.0
n/a	n/a	h1	39.0	2.0	HL	39.0	32.0	44.0	40.0	L	left	0.234299999952	15464.0
n/a	n/a	h1	39.0	3.0	HL	36.0	47.0	44.0	40.0	R	right	0.236899999857	15511.0
n/a	n/a	h1	39.0	4.0	HL	55.0	46.0	44.0	40.0	X	left	1.768	15566.0
n/a	n/a	h6	40.0	0.0	HL	36.0	38.0	40.0	28.0	L	left	0.234299999952	15602.0
n/a	n/a	h6	40.0	1.0	HL	37.0	27.0	40.0	28.0	L	left	0.240799999952	15639.0
n/a	n/a	h6	40.0	2.0	HL	33.0	23.0	40.0	28.0	R	right	0.218600000143	15662.0
n/a	n/a	h6	40.0	3.0	HL	44.0	40.0	40.0	28.0	R	right	0.643700000048	15702.0
n/a	n/a	h6	40.0	4.0	HL	22.0	36.0	40.0	28.0	X	left	1.1365	15724.0
n/a	n/a	h6	40.0	5.0	HL	47.0	30.0	40.0	28.0	X	left	0.625900000095	15771.0
n/a	n/a	h6	40.0	6.0	HL	31.0	16.0	40.0	28.0	X	left	0.390600000143	15802.0
n/a	n/a	h6	40.0	7.0	HL	47.0	34.0	40.0	28.0	X	right	0.251400000095	15836.0
n/a	n/a	h6	40.0	8.0	HL	39.0	20.0	40.0	28.0	X	right	0.268	15856.0
n/a	n/a	h6	40.0	9.0	HL	37.0	36.0	40.0	28.0	X	left	0.5335	15893.0
n/a	n/a	h1	41.0	0.0	LH	65.0	58.0	52.0	60.0	L	left	0.263200000048	15958.0
n/a	n/a	h1	41.0	1.0	LH	49.0	64.0	52.0	60.0	L	left	0.318099999905	16007.0
n/a	n/a	h1	41.0	2.0	LH	52.0	73.0	52.0	60.0	R	right	0.348	16080.0
n/a	n/a	h1	41.0	3.0	LH	52.0	64.0	52.0	60.0	R	right	0.517399999857	16144.0
n/a	n/a	h1	41.0	4.0	LH	52.0	62.0	52.0	60.0	X	right	0.271	16206.0
n/a	n/a	h1	42.0	0.0	LH	43.0	75.0	40.0	70.0	R	right	0.202700000048	16281.0
n/a	n/a	h1	42.0	1.0	LH	30.0	80.0	40.0	70.0	R	right	0.338699999809	16361.0
n/a	n/a	h1	42.0	2.0	LH	40.0	70.0	40.0	70.0	R	right	0.248399999857	16431.0
n/a	n/a	h1	42.0	3.0	LH	22.0	65.0	40.0	70.0	L	left	0.4015	16453.0
n/a	n/a	h1	42.0	4.0	LH	44.0	86.0	40.0	70.0	X	right	0.452599999905	16539.0
n/a	n/a	h1	43.0	0.0	LH	32.0	50.0	36.0	40.0	L	left	0.218200000048	16571.0
n/a	n/a	h1	43.0	1.0	LH	39.0	44.0	36.0	40.0	R	right	0.236700000048	16615.0
n/a	n/a	h1	43.0	2.0	LH	27.0	48.0	36.0	40.0	L	left	0.250300000191	16642.0
n/a	n/a	h1	43.0	3.0	LH	44.0	31.0	36.0	40.0	L	left	0.374799999952	16686.0
n/a	n/a	h1	43.0	4.0	LH	42.0	45.0	36.0	40.0	X	right	0.484400000095	16731.0
n/a	n/a	h1	44.0	0.0	HL	58.0	57.0	64.0	60.0	L	left	0.275399999857	16789.0
n/a	n/a	h1	44.0	1.0	HL	68.0	62.0	64.0	60.0	R	right	0.287899999857	16851.0
n/a	n/a	h1	44.0	2.0	HL	61.0	75.0	64.0	60.0	L	left	0.217700000048	16912.0
n/a	n/a	h1	44.0	3.0	HL	44.0	57.0	64.0	60.0	R	right	0.585300000191	16969.0
n/a	n/a	h1	44.0	4.0	HL	65.0	64.0	64.0	60.0	X	right	1.002	17033.0
n/a	n/a	h1	45.0	0.0	HL	75.0	55.0	72.0	60.0	L	left	0.2765	17108.0
n/a	n/a	h1	45.0	1.0	HL	69.0	58.0	72.0	60.0	R	right	0.300400000095	17166.0
n/a	n/a	h1	45.0	2.0	HL	62.0	75.0	72.0	60.0	L	left	0.151299999952	17228.0
n/a	n/a	h1	45.0	3.0	HL	69.0	50.0	72.0	60.0	R	right	0.136099999905	17278.0
n/a	n/a	h1	45.0	4.0	HL	60.0	48.0	72.0	60.0	X	left	0.496399999857	17338.0
n/a	n/a	h6	46.0	0.0	LH	72.0	71.0	60.0	64.0	L	left	0.251600000143	17410.0
n/a	n/a	h6	46.0	1.0	LH	49.0	87.0	60.0	64.0	L	left	0.323900000095	17459.0
n/a	n/a	h6	46.0	2.0	LH	61.0	70.0	60.0	64.0	R	right	0.2075	17529.0
n/a	n/a	h6	46.0	3.0	LH	61.0	76.0	60.0	64.0	R	right	0.251	17605.0
n/a	n/a	h6	46.0	4.0	LH	70.0	72.0	60.0	64.0	X	right	0.937099999905	17677.0
n/a	n/a	h6	46.0	5.0	LH	69.0	65.0	60.0	64.0	X	right	0.203800000191	17742.0
n/a	n/a	h6	46.0	6.0	LH	60.0	52.0	60.0	64.0	X	right	0.2175	17794.0
n/a	n/a	h6	46.0	7.0	LH	63.0	61.0	60.0	64.0	X	right	0.267599999905	17855.0
n/a	n/a	h6	46.0	8.0	LH	58.0	65.0	60.0	64.0	X	right	0.290799999952	17920.0
n/a	n/a	h6	46.0	9.0	LH	54.0	59.0	60.0	64.0	X	left	0.673699999809	17974.0
n/a	n/a	h1	47.0	0.0	HL	65.0	59.0	68.0	60.0	L	left	0.193	18039.0
n/a	n/a	h1	47.0	1.0	HL	57.0	58.0	68.0	60.0	R	right	0.203799999952	18097.0
n/a	n/a	h1	47.0	2.0	HL	54.0	48.0	68.0	60.0	L	left	0.501399999857	18151.0
n/a	n/a	h1	47.0	3.0	HL	70.0	61.0	68.0	60.0	L	left	0.636	18221.0
n/a	n/a	h1	47.0	4.0	HL	67.0	45.0	68.0	60.0	X	left	0.5355	18288.0
n/a	n/a	h1	48.0	0.0	HL	67.0	22.0	60.0	30.0	R	right	0.266900000095	18310.0
n/a	n/a	h1	48.0	1.0	HL	55.0	38.0	60.0	30.0	R	right	0.334200000048	18348.0
n/a	n/a	h1	48.0	2.0	HL	83.0	34.0	60.0	30.0	R	right	0.272799999952	18382.0
n/a	n/a	h1	48.0	3.0	HL	67.0	27.0	60.0	30.0	L	left	0.286799999952	18449.0
n/a	n/a	h1	48.0	4.0	HL	70.0	16.0	60.0	30.0	X	left	0.4185	18519.0
n/a	n/a	h6	49.0	0.0	HL	77.0	45.0	70.0	40.0	L	left	0.207299999952	18596.0
n/a	n/a	h6	49.0	1.0	HL	68.0	29.0	70.0	40.0	L	left	0.236900000095	18664.0
n/a	n/a	h6	49.0	2.0	HL	71.0	27.0	70.0	40.0	L	left	0.2825	18735.0
n/a	n/a	h6	49.0	3.0	HL	82.0	35.0	70.0	40.0	R	right	0.2175	18770.0
n/a	n/a	h6	49.0	4.0	HL	72.0	23.0	70.0	40.0	X	left	0.235200000048	18842.0
n/a	n/a	h6	49.0	5.0	HL	74.0	31.0	70.0	40.0	X	left	0.208	18916.0
n/a	n/a	h6	49.0	6.0	HL	86.0	53.0	70.0	40.0	X	left	0.168299999952	19002.0
n/a	n/a	h6	49.0	7.0	HL	68.0	32.0	70.0	40.0	X	left	0.151899999857	19070.0
n/a	n/a	h6	49.0	8.0	HL	64.0	27.0	70.0	40.0	X	left	0.137599999905	19134.0
n/a	n/a	h6	49.0	9.0	HL	67.0	43.0	70.0	40.0	X	left	0.159799999952	19201.0
n/a	n/a	h6	50.0	0.0	HL	96.0	65.0	90.0	60.0	L	left	0.219900000095	19297.0
n/a	n/a	h6	50.0	1.0	HL	88.0	57.0	90.0	60.0	L	left	0.341099999905	19385.0
n/a	n/a	h6	50.0	2.0	HL	84.0	59.0	90.0	60.0	R	right	0.185300000191	19444.0
n/a	n/a	h6	50.0	3.0	HL	76.0	67.0	90.0	60.0	R	right	0.435900000095	19511.0
n/a	n/a	h6	50.0	4.0	HL	89.0	66.0	90.0	60.0	X	left	0.161200000048	19600.0
n/a	n/a	h6	50.0	5.0	HL	99.0	61.0	90.0	60.0	X	left	0.187600000143	19699.0
n/a	n/a	h6	50.0	6.0	HL	84.0	67.0	90.0	60.0	X	left	0.104399999857	19783.0
n/a	n/a	h6	50.0	7.0	HL	91.0	70.0	90.0	60.0	X	left	0.0437999999523	19874.0
n/a	n/a	h6	50.0	8.0	HL	85.0	51.0	90.0	60.0	X	left	0.134299999952	19959.0
n/a	n/a	h6	50.0	9.0	HL	83.0	72.0	90.0	60.0	X	left	0.125700000048	20042.0
n/a	n/a	h6	51.0	0.0	HL	55.0	61.0	60.0	52.0	R	right	0.267599999905	20103.0
n/a	n/a	h6	51.0	1.0	HL	60.0	43.0	60.0	52.0	L	left	0.2005	20163.0
n/a	n/a	h6	51.0	2.0	HL	65.0	62.0	60.0	52.0	L	left	0.8675	20228.0
n/a	n/a	h6	51.0	3.0	HL	53.0	67.0	60.0	52.0	R	right	0.3345	20295.0
n/a	n/a	h6	51.0	4.0	HL	52.0	57.0	60.0	52.0	X	right	0.437799999952	20352.0
n/a	n/a	h6	51.0	5.0	HL	78.0	49.0	60.0	52.0	X	right	0.5875	20401.0
n/a	n/a	h6	51.0	6.0	HL	44.0	51.0	60.0	52.0	X	left	0.621900000095	20445.0
n/a	n/a	h6	51.0	7.0	HL	59.0	44.0	60.0	52.0	X	right	0.340100000143	20489.0
n/a	n/a	h6	51.0	8.0	HL	60.0	42.0	60.0	52.0	X	left	0.342400000095	20549.0
n/a	n/a	h6	51.0	9.0	HL	59.0	52.0	60.0	52.0	X	left	0.209200000048	20608.0
n/a	n/a	h6	52.0	0.0	LH	40.0	38.0	40.0	48.0	L	left	0.201600000143	20648.0
n/a	n/a	h6	52.0	1.0	LH	37.0	44.0	40.0	48.0	L	left	0.2515	20685.0
n/a	n/a	h6	52.0	2.0	LH	60.0	44.0	40.0	48.0	R	right	0.186099999905	20729.0
n/a	n/a	h6	52.0	3.0	LH	42.0	52.0	40.0	48.0	R	right	0.269800000191	20781.0
n/a	n/a	h6	52.0	4.0	LH	31.0	59.0	40.0	48.0	X	right	0.601299999952	20840.0
n/a	n/a	h6	52.0	5.0	LH	39.0	40.0	40.0	48.0	X	right	0.159299999952	20880.0
n/a	n/a	h6	52.0	6.0	LH	43.0	47.0	40.0	48.0	X	left	0.890599999905	20923.0
n/a	n/a	h6	52.0	7.0	LH	50.0	47.0	40.0	48.0	X	right	0.517299999952	20970.0
n/a	n/a	h6	52.0	8.0	LH	55.0	41.0	40.0	48.0	X	right	0.217800000191	21011.0
n/a	n/a	h6	52.0	9.0	LH	34.0	45.0	40.0	48.0	X	right	0.133900000095	21056.0
n/a	n/a	h6	53.0	0.0	LH	19.0	45.0	30.0	60.0	R	right	0.336099999905	21101.0
n/a	n/a	h6	53.0	1.0	LH	39.0	62.0	30.0	60.0	L	left	0.2935	21140.0
n/a	n/a	h6	53.0	2.0	LH	24.0	65.0	30.0	60.0	L	left	0.439799999952	21164.0
n/a	n/a	h6	53.0	3.0	LH	42.0	55.0	30.0	60.0	L	left	0.65	21206.0
n/a	n/a	h6	53.0	4.0	LH	37.0	72.0	30.0	60.0	X	right	0.8845	21278.0
n/a	n/a	h6	53.0	5.0	LH	31.0	61.0	30.0	60.0	X	right	0.353299999952	21339.0
n/a	n/a	h6	53.0	6.0	LH	33.0	50.0	30.0	60.0	X	right	0.2535	21389.0
n/a	n/a	h6	53.0	7.0	LH	29.0	88.0	30.0	60.0	X	right	0.157900000095	21477.0
n/a	n/a	h6	53.0	8.0	LH	11.0	62.0	30.0	60.0	X	right	0.466699999809	21539.0
n/a	n/a	h6	53.0	9.0	LH	44.0	70.0	30.0	60.0	X	right	0.472599999905	21609.0
n/a	n/a	h6	54.0	0.0	HL	36.0	38.0	40.0	28.0	L	left	0.201900000095	21645.0
n/a	n/a	h6	54.0	1.0	HL	37.0	27.0	40.0	28.0	L	left	0.2915	21682.0
n/a	n/a	h6	54.0	2.0	HL	33.0	23.0	40.0	28.0	R	right	0.2425	21705.0
n/a	n/a	h6	54.0	3.0	HL	44.0	40.0	40.0	28.0	R	right	0.265799999952	21745.0
n/a	n/a	h6	54.0	4.0	HL	27.0	30.0	40.0	28.0	X	right	0.708400000095	21775.0
n/a	n/a	h6	54.0	5.0	HL	41.0	28.0	40.0	28.0	X	right	0.3855	21803.0
n/a	n/a	h6	54.0	6.0	HL	45.0	35.0	40.0	28.0	X	left	0.3015	21848.0
n/a	n/a	h6	54.0	7.0	HL	44.0	28.0	40.0	28.0	X	left	0.2695	21892.0
n/a	n/a	h6	54.0	8.0	HL	42.0	30.0	40.0	28.0	X	left	0.614799999952	21934.0
n/a	n/a	h6	54.0	9.0	HL	45.0	31.0	40.0	28.0	X	left	0.191200000048	21979.0
n/a	n/a	h1	55.0	0.0	LH	40.0	64.0	40.0	52.0	L	left	0.216600000143	22019.0
n/a	n/a	h1	55.0	1.0	LH	44.0	52.0	40.0	52.0	L	left	0.225400000095	22063.0
n/a	n/a	h1	55.0	2.0	LH	40.0	48.0	40.0	52.0	R	right	0.284599999905	22111.0
n/a	n/a	h1	55.0	3.0	LH	58.0	62.0	40.0	52.0	L	left	0.6845	22169.0
n/a	n/a	h1	55.0	4.0	LH	34.0	58.0	40.0	52.0	X	left	0.354099999905	22203.0
n/a	n/a	h6	56.0	0.0	HL	60.0	56.0	60.0	52.0	R	right	0.207200000048	22259.0
n/a	n/a	h6	56.0	1.0	HL	67.0	49.0	60.0	52.0	L	left	0.257799999952	22326.0
n/a	n/a	h6	56.0	2.0	HL	67.0	51.0	60.0	52.0	R	right	0.745	22377.0
n/a	n/a	h6	56.0	3.0	HL	69.0	45.0	60.0	52.0	R	right	0.5515	22422.0
n/a	n/a	h6	56.0	4.0	HL	70.0	78.0	60.0	52.0	X	left	0.733599999905	22492.0
n/a	n/a	h6	56.0	5.0	HL	55.0	45.0	60.0	52.0	X	left	0.186299999952	22547.0
n/a	n/a	h6	56.0	6.0	HL	75.0	51.0	60.0	52.0	X	right	0.584300000191	22598.0
n/a	n/a	h6	56.0	7.0	HL	66.0	67.0	60.0	52.0	X	right	0.3245	22665.0
n/a	n/a	h6	56.0	8.0	HL	61.0	59.0	60.0	52.0	X	right	0.856	22724.0
n/a	n/a	h6	56.0	9.0	HL	60.0	63.0	60.0	52.0	X	left	0.852700000048	22784.0
n/a	n/a	h6	57.0	0.0	HL	39.0	36.0	40.0	36.0	R	right	0.200699999809	22820.0
n/a	n/a	h6	57.0	1.0	HL	31.0	21.0	40.0	36.0	R	right	0.267	22841.0
n/a	n/a	h6	57.0	2.0	HL	46.0	27.0	40.0	36.0	L	left	0.265799999952	22887.0
n/a	n/a	h6	57.0	3.0	HL	26.0	50.0	40.0	36.0	L	left	0.306199999809	22913.0
n/a	n/a	h6	57.0	4.0	HL	46.0	20.0	40.0	36.0	X	right	0.722699999809	22933.0
n/a	n/a	h6	57.0	5.0	HL	45.0	22.0	40.0	36.0	X	left	0.200699999809	22978.0
n/a	n/a	h6	57.0	6.0	HL	31.0	42.0	40.0	36.0	X	left	0.110599999905	23009.0
n/a	n/a	h6	57.0	7.0	HL	40.0	31.0	40.0	36.0	X	left	0.118	23049.0
n/a	n/a	h6	57.0	8.0	HL	49.0	43.0	40.0	36.0	X	left	0.170899999857	23098.0
n/a	n/a	h6	57.0	9.0	HL	35.0	38.0	40.0	36.0	X	left	0.154299999952	23133.0
n/a	n/a	h1	58.0	0.0	HL	58.0	57.0	64.0	60.0	L	left	0.2065	23191.0
n/a	n/a	h1	58.0	1.0	HL	68.0	62.0	64.0	60.0	R	right	0.183	23253.0
n/a	n/a	h1	58.0	2.0	HL	61.0	75.0	64.0	60.0	L	left	0.1845	23314.0
n/a	n/a	h1	58.0	3.0	HL	44.0	57.0	64.0	60.0	R	right	0.267800000191	23371.0
n/a	n/a	h1	58.0	4.0	HL	75.0	52.0	64.0	60.0	X	right	0.4675	23423.0
n/a	n/a	h6	59.0	0.0	LH	19.0	45.0	30.0	60.0	R	right	0.185200000048	23468.0
n/a	n/a	h6	59.0	1.0	LH	39.0	62.0	30.0	60.0	L	left	0.123399999857	23507.0
n/a	n/a	h6	59.0	2.0	LH	24.0	65.0	30.0	60.0	L	left	0.336	23531.0
n/a	n/a	h6	59.0	3.0	LH	42.0	55.0	30.0	60.0	L	left	0.309	23573.0
n/a	n/a	h6	59.0	4.0	LH	40.0	55.0	30.0	60.0	X	right	0.378599999905	23628.0
n/a	n/a	h6	59.0	5.0	LH	23.0	71.0	30.0	60.0	X	right	0.258400000095	23699.0
n/a	n/a	h6	59.0	6.0	LH	25.0	65.0	30.0	60.0	X	right	0.184799999952	23764.0
n/a	n/a	h6	59.0	7.0	LH	28.0	55.0	30.0	60.0	X	right	0.134799999952	23819.0
n/a	n/a	h6	59.0	8.0	LH	17.0	65.0	30.0	60.0	X	right	0.0495999999047	23884.0
n/a	n/a	h6	59.0	9.0	LH	30.0	64.0	30.0	60.0	X	right	0.139700000048	23948.0
n/a	n/a	h6	60.0	0.0	LH	69.0	46.0	56.0	60.0	R	right	0.185399999857	23994.0
n/a	n/a	h6	60.0	1.0	LH	65.0	53.0	56.0	60.0	L	left	0.0682000000477	24059.0
n/a	n/a	h6	60.0	2.0	LH	57.0	59.0	56.0	60.0	L	left	0.186299999952	24116.0
n/a	n/a	h6	60.0	3.0	LH	62.0	60.0	56.0	60.0	L	left	0.173799999952	24178.0
n/a	n/a	h6	60.0	4.0	LH	57.0	51.0	56.0	60.0	X	left	1.1165999999	24235.0
n/a	n/a	h6	60.0	5.0	LH	58.0	50.0	56.0	60.0	X	left	0.265700000048	24293.0
n/a	n/a	h6	60.0	6.0	LH	54.0	48.0	56.0	60.0	X	left	0.209200000048	24347.0
n/a	n/a	h6	60.0	7.0	LH	64.0	68.0	56.0	60.0	X	left	0.502299999952	24411.0
n/a	n/a	h6	60.0	8.0	LH	55.0	54.0	56.0	60.0	X	left	0.354299999952	24466.0
n/a	n/a	h6	60.0	9.0	LH	44.0	62.0	56.0	60.0	X	left	0.167200000048	24510.0
n/a	n/a	h1	61.0	0.0	HL	57.0	35.0	60.0	40.0	L	left	0.316599999905	24567.0
n/a	n/a	h1	61.0	1.0	HL	63.0	50.0	60.0	40.0	R	right	0.251799999952	24617.0
n/a	n/a	h1	61.0	2.0	HL	57.0	53.0	60.0	40.0	L	left	0.334800000191	24674.0
n/a	n/a	h1	61.0	3.0	HL	54.0	48.0	60.0	40.0	R	right	0.285099999905	24722.0
n/a	n/a	h1	61.0	4.0	HL	58.0	42.0	60.0	40.0	X	left	0.3075	24780.0
n/a	n/a	h6	62.0	0.0	HL	60.0	56.0	60.0	52.0	R	right	0.268299999952	24836.0
n/a	n/a	h6	62.0	1.0	HL	67.0	49.0	60.0	52.0	L	left	0.1175	24903.0
n/a	n/a	h6	62.0	2.0	HL	67.0	51.0	60.0	52.0	R	right	0.683299999952	24954.0
n/a	n/a	h6	62.0	3.0	HL	69.0	45.0	60.0	52.0	R	right	0.638700000048	24999.0
n/a	n/a	h6	62.0	4.0	HL	57.0	49.0	60.0	52.0	X	left	0.415400000095	25056.0
n/a	n/a	h6	62.0	5.0	HL	62.0	39.0	60.0	52.0	X	left	0.267199999809	25118.0
n/a	n/a	h6	62.0	6.0	HL	42.0	47.0	60.0	52.0	X	left	0.636200000048	25160.0
n/a	n/a	h6	62.0	7.0	HL	69.0	36.0	60.0	52.0	X	left	0.243099999905	25229.0
n/a	n/a	h6	62.0	8.0	HL	62.0	53.0	60.0	52.0	X	left	0.274100000143	25291.0
n/a	n/a	h6	62.0	9.0	HL	58.0	56.0	60.0	52.0	X	left	0.173300000191	25349.0
n/a	n/a	h6	63.0	0.0	LH	53.0	77.0	60.0	80.0	L	left	0.284399999857	25402.0
n/a	n/a	h6	63.0	1.0	LH	60.0	78.0	60.0	80.0	L	left	0.359299999952	25462.0
n/a	n/a	h6	63.0	2.0	LH	58.0	68.0	60.0	80.0	L	left	0.235299999952	25520.0
n/a	n/a	h6	63.0	3.0	LH	57.0	67.0	60.0	80.0	R	right	0.205	25587.0
n/a	n/a	h6	63.0	4.0	LH	64.0	82.0	60.0	80.0	X	right	0.537	25669.0
n/a	n/a	h6	63.0	5.0	LH	65.0	89.0	60.0	80.0	X	right	0.251	25758.0
n/a	n/a	h6	63.0	6.0	LH	58.0	72.0	60.0	80.0	X	right	0.138099999905	25830.0
n/a	n/a	h6	63.0	7.0	LH	56.0	73.0	60.0	80.0	X	right	0.1015	25903.0
n/a	n/a	h6	63.0	8.0	LH	59.0	91.0	60.0	80.0	X	right	0.168400000095	25994.0
n/a	n/a	h6	63.0	9.0	LH	48.0	81.0	60.0	80.0	X	right	0.169100000143	26075.0
n/a	n/a	h1	64.0	0.0	LH	25.0	38.0	32.0	40.0	L	left	0.218399999857	26100.0
n/a	n/a	h1	64.0	1.0	LH	29.0	57.0	32.0	40.0	L	left	0.267	26129.0
n/a	n/a	h1	64.0	2.0	LH	44.0	23.0	32.0	40.0	R	right	0.2675	26152.0
n/a	n/a	h1	64.0	3.0	LH	36.0	31.0	32.0	40.0	L	left	0.242899999857	26188.0
n/a	n/a	h1	64.0	4.0	LH	14.0	47.0	32.0	40.0	X	left	0.585599999905	26202.0
n/a	n/a	h6	65.0	0.0	LH	44.0	39.0	40.0	48.0	R	right	0.269600000143	26241.0
n/a	n/a	h6	65.0	1.0	LH	50.0	55.0	40.0	48.0	R	right	0.319799999952	26296.0
n/a	n/a	h6	65.0	2.0	LH	53.0	56.0	40.0	48.0	L	left	0.249700000048	26349.0
n/a	n/a	h6	65.0	3.0	LH	49.0	58.0	40.0	48.0	R	right	0.353799999952	26407.0
n/a	n/a	h6	65.0	4.0	LH	37.0	38.0	40.0	48.0	X	right	0.7925	26445.0
n/a	n/a	h6	65.0	5.0	LH	46.0	28.0	40.0	48.0	X	left	0.538200000048	26491.0
n/a	n/a	h6	65.0	6.0	LH	44.0	50.0	40.0	48.0	X	left	0.204599999905	26535.0
n/a	n/a	h6	65.0	7.0	LH	51.0	64.0	40.0	48.0	X	left	0.203300000191	26586.0
n/a	n/a	h6	65.0	8.0	LH	36.0	56.0	40.0	48.0	X	left	0.271299999952	26622.0
n/a	n/a	h6	65.0	9.0	LH	47.0	42.0	40.0	48.0	X	right	0.708700000048	26664.0
n/a	n/a	h6	66.0	0.0	HL	28.0	15.0	40.0	20.0	L	left	0.2675	26692.0
n/a	n/a	h6	66.0	1.0	HL	53.0	16.0	40.0	20.0	L	left	0.280900000095	26745.0
n/a	n/a	h6	66.0	2.0	HL	55.0	28.0	40.0	20.0	L	left	0.143100000143	26800.0
n/a	n/a	h6	66.0	3.0	HL	53.0	28.0	40.0	20.0	R	right	0.384899999857	26828.0
n/a	n/a	h6	66.0	4.0	HL	40.0	24.0	40.0	20.0	X	left	0.586200000048	26868.0
n/a	n/a	h6	66.0	5.0	HL	52.0	24.0	40.0	20.0	X	left	0.165399999857	26920.0
n/a	n/a	h6	66.0	6.0	HL	34.0	16.0	40.0	20.0	X	right	0.356900000095	26936.0
n/a	n/a	h6	66.0	7.0	HL	24.0	24.0	40.0	20.0	X	left	0.3015	26960.0
n/a	n/a	h6	66.0	8.0	HL	40.0	23.0	40.0	20.0	X	left	0.0594000000954	27000.0
n/a	n/a	h6	66.0	9.0	HL	45.0	21.0	40.0	20.0	X	left	0.114200000048	27045.0
n/a	n/a	h6	67.0	0.0	LH	60.0	79.0	60.0	72.0	R	right	0.201099999905	27124.0
n/a	n/a	h6	67.0	1.0	LH	57.0	66.0	60.0	72.0	R	right	0.469100000143	27190.0
n/a	n/a	h6	67.0	2.0	LH	64.0	65.0	60.0	72.0	L	left	0.151100000143	27254.0
n/a	n/a	h6	67.0	3.0	LH	63.0	69.0	60.0	72.0	R	right	0.283799999952	27323.0
n/a	n/a	h6	67.0	4.0	LH	65.0	75.0	60.0	72.0	X	right	0.609	27398.0
n/a	n/a	h6	67.0	5.0	LH	52.0	77.0	60.0	72.0	X	right	0.186	27475.0
n/a	n/a	h6	67.0	6.0	LH	73.0	86.0	60.0	72.0	X	left	0.237399999857	27548.0
n/a	n/a	h6	67.0	7.0	LH	66.0	80.0	60.0	72.0	X	left	0.283400000095	27614.0
n/a	n/a	h6	67.0	8.0	LH	57.0	73.0	60.0	72.0	X	left	0.601099999905	27671.0
n/a	n/a	h6	67.0	9.0	LH	60.0	75.0	60.0	72.0	X	right	0.250599999905	27746.0
n/a	n/a	h1	68.0	0.0	LH	45.0	56.0	40.0	60.0	R	right	0.4095	27802.0
n/a	n/a	h1	68.0	1.0	LH	29.0	52.0	40.0	60.0	R	right	0.457200000048	27854.0
n/a	n/a	h1	68.0	2.0	LH	47.0	60.0	40.0	60.0	R	right	0.255100000143	27914.0
n/a	n/a	h1	68.0	3.0	LH	36.0	57.0	40.0	60.0	L	left	0.466099999905	27950.0
n/a	n/a	h1	68.0	4.0	LH	41.0	51.0	40.0	60.0	X	right	0.621	28001.0
n/a	n/a	h6	69.0	0.0	LH	25.0	48.0	20.0	40.0	L	left	0.270600000143	28026.0
n/a	n/a	h6	69.0	1.0	LH	20.0	48.0	20.0	40.0	R	right	0.167099999905	28074.0
n/a	n/a	h6	69.0	2.0	LH	8.0	28.0	20.0	40.0	R	right	0.284599999905	28102.0
n/a	n/a	h6	69.0	3.0	LH	22.0	33.0	20.0	40.0	L	left	0.407	28124.0
n/a	n/a	h6	69.0	4.0	LH	22.0	50.0	20.0	40.0	X	right	0.892200000048	28174.0
n/a	n/a	h6	69.0	5.0	LH	24.0	35.0	20.0	40.0	X	right	0.371299999952	28209.0
n/a	n/a	h6	69.0	6.0	LH	14.0	40.0	20.0	40.0	X	right	0.165400000095	28249.0
n/a	n/a	h6	69.0	7.0	LH	27.0	49.0	20.0	40.0	X	right	0.149200000048	28298.0
n/a	n/a	h6	69.0	8.0	LH	31.0	37.0	20.0	40.0	X	right	0.101099999905	28335.0
n/a	n/a	h6	69.0	9.0	LH	26.0	57.0	20.0	40.0	X	right	0.118299999952	28392.0
n/a	n/a	h1	70.0	0.0	LH	32.0	76.0	40.0	60.0	L	left	0.266799999952	28424.0
n/a	n/a	h1	70.0	1.0	LH	37.0	65.0	40.0	60.0	R	right	0.140699999809	28489.0
n/a	n/a	h1	70.0	2.0	LH	46.0	68.0	40.0	60.0	L	left	0.151200000048	28535.0
n/a	n/a	h1	70.0	3.0	LH	37.0	69.0	40.0	60.0	R	right	0.154399999857	28604.0
n/a	n/a	h1	70.0	4.0	LH	31.0	55.0	40.0	60.0	X	right	0.251600000143	28659.0
n/a	n/a	h1	71.0	0.0	LH	48.0	67.0	40.0	70.0	R	right	0.233700000048	28726.0
n/a	n/a	h1	71.0	1.0	LH	47.0	62.0	40.0	70.0	L	left	0.1085	28773.0
n/a	n/a	h1	71.0	2.0	LH	39.0	62.0	40.0	70.0	R	right	0.168200000048	28835.0
n/a	n/a	h1	71.0	3.0	LH	50.0	65.0	40.0	70.0	L	left	0.185600000143	28885.0
n/a	n/a	h1	71.0	4.0	LH	31.0	64.0	40.0	70.0	X	right	0.198900000095	28949.0
n/a	n/a	h1	72.0	0.0	LH	32.0	50.0	36.0	40.0	L	left	0.288599999905	28981.0
n/a	n/a	h1	72.0	1.0	LH	39.0	44.0	36.0	40.0	R	right	0.201200000048	29025.0
n/a	n/a	h1	72.0	2.0	LH	27.0	48.0	36.0	40.0	L	left	0.193100000143	29052.0
n/a	n/a	h1	72.0	3.0	LH	44.0	31.0	36.0	40.0	L	left	0.784600000143	29096.0
n/a	n/a	h1	72.0	4.0	LH	32.0	33.0	36.0	40.0	X	left	1.319	29128.0
n/a	n/a	h1	73.0	0.0	LH	31.0	44.0	28.0	40.0	R	right	0.236200000048	29172.0
n/a	n/a	h1	73.0	1.0	LH	27.0	39.0	28.0	40.0	L	left	0.269399999857	29199.0
n/a	n/a	h1	73.0	2.0	LH	25.0	54.0	28.0	40.0	R	right	0.2375	29253.0
n/a	n/a	h1	73.0	3.0	LH	29.0	30.0	28.0	40.0	L	left	0.4575	29282.0
n/a	n/a	h1	73.0	4.0	LH	26.0	45.0	28.0	40.0	X	right	0.352599999905	29327.0
n/a	n/a	h1	74.0	0.0	LH	51.0	75.0	48.0	60.0	R	right	0.234	29402.0
n/a	n/a	h1	74.0	1.0	LH	58.0	57.0	48.0	60.0	R	right	0.42	29459.0
n/a	n/a	h1	74.0	2.0	LH	46.0	58.0	48.0	60.0	L	left	0.615299999952	29505.0
n/a	n/a	h1	74.0	3.0	LH	40.0	48.0	48.0	60.0	R	right	0.602400000095	29553.0
n/a	n/a	h1	74.0	4.0	LH	29.0	51.0	48.0	60.0	X	right	0.397400000095	29604.0
n/a	n/a	h1	75.0	0.0	LH	66.0	43.0	56.0	60.0	L	left	0.2685	29670.0
n/a	n/a	h1	75.0	1.0	LH	33.0	67.0	56.0	60.0	R	right	0.203	29737.0
n/a	n/a	h1	75.0	2.0	LH	42.0	59.0	56.0	60.0	L	left	0.494099999905	29779.0
n/a	n/a	h1	75.0	3.0	LH	55.0	64.0	56.0	60.0	R	right	0.228700000048	29843.0
n/a	n/a	h1	75.0	4.0	LH	58.0	59.0	56.0	60.0	X	right	0.184299999952	29902.0
n/a	n/a	h6	76.0	0.0	HL	55.0	61.0	60.0	52.0	R	right	0.248599999905	29963.0
n/a	n/a	h6	76.0	1.0	HL	60.0	43.0	60.0	52.0	L	left	0.219200000048	30023.0
n/a	n/a	h6	76.0	2.0	HL	65.0	62.0	60.0	52.0	L	left	0.275	30088.0
n/a	n/a	h6	76.0	3.0	HL	53.0	67.0	60.0	52.0	R	right	0.502799999952	30155.0
n/a	n/a	h6	76.0	4.0	HL	61.0	57.0	60.0	52.0	X	right	0.571099999905	30212.0
n/a	n/a	h6	76.0	5.0	HL	59.0	41.0	60.0	52.0	X	right	0.384799999952	30253.0
n/a	n/a	h6	76.0	6.0	HL	42.0	45.0	60.0	52.0	X	left	0.644299999952	30295.0
n/a	n/a	h6	76.0	7.0	HL	60.0	45.0	60.0	52.0	X	right	0.988100000143	30340.0
n/a	n/a	h6	76.0	8.0	HL	64.0	53.0	60.0	52.0	X	right	0.349600000143	30393.0
n/a	n/a	h6	76.0	9.0	HL	56.0	38.0	60.0	52.0	X	right	0.182099999905	30431.0
n/a	n/a	h1	77.0	0.0	LH	65.0	58.0	52.0	60.0	L	left	0.268399999857	30496.0
n/a	n/a	h1	77.0	1.0	LH	49.0	64.0	52.0	60.0	L	left	0.606799999952	30545.0
n/a	n/a	h1	77.0	2.0	LH	52.0	73.0	52.0	60.0	R	right	0.0899999999999	30618.0
n/a	n/a	h1	77.0	3.0	LH	52.0	64.0	52.0	60.0	R	right	0.352399999857	30682.0
n/a	n/a	h1	77.0	4.0	LH	57.0	61.0	52.0	60.0	X	right	0.289099999905	30743.0
n/a	n/a	h6	78.0	0.0	LH	60.0	79.0	60.0	72.0	R	right	0.184199999809	30822.0
n/a	n/a	h6	78.0	1.0	LH	57.0	66.0	60.0	72.0	R	right	0.401299999952	30888.0
n/a	n/a	h6	78.0	2.0	LH	64.0	65.0	60.0	72.0	L	left	0.217799999952	30952.0
n/a	n/a	h6	78.0	3.0	LH	63.0	69.0	60.0	72.0	R	right	0.169700000048	31021.0
n/a	n/a	h6	78.0	4.0	LH	67.0	90.0	60.0	72.0	X	right	0.602099999905	31111.0
n/a	n/a	h6	78.0	5.0	LH	56.0	63.0	60.0	72.0	X	right	0.167099999905	31174.0
n/a	n/a	h6	78.0	6.0	LH	53.0	64.0	60.0	72.0	X	right	0.101299999952	31238.0
n/a	n/a	h6	78.0	7.0	LH	65.0	72.0	60.0	72.0	X	right	0.120200000048	31310.0
n/a	n/a	h6	78.0	8.0	LH	54.0	66.0	60.0	72.0	X	right	0.134299999952	31376.0
n/a	n/a	h6	78.0	9.0	LH	63.0	62.0	60.0	72.0	X	right	0.117600000143	31438.0
n/a	n/a	h1	79.0	0.0	LH	45.0	56.0	40.0	60.0	R	right	0.417299999952	31494.0
n/a	n/a	h1	79.0	1.0	LH	29.0	52.0	40.0	60.0	R	right	0.351200000048	31546.0
n/a	n/a	h1	79.0	2.0	LH	47.0	60.0	40.0	60.0	R	right	0.220899999857	31606.0
n/a	n/a	h1	79.0	3.0	LH	36.0	57.0	40.0	60.0	L	left	0.409200000048	31642.0
n/a	n/a	h1	79.0	4.0	LH	31.0	50.0	40.0	60.0	X	right	0.785400000095	31692.0
