onset	duration	trial_type	trial_number	bandit_num	mean_type	left_reward	right_reward	left_mean	right_mean	force_pos	response	response_time	points
n/a	n/a	h1	0.0	0.0	LH	40.0	64.0	40.0	52.0	L	left	3.28989999998	40.0
n/a	n/a	h1	0.0	1.0	LH	44.0	48.0	40.0	52.0	L	left	1.83870000005	84.0
n/a	n/a	h1	0.0	2.0	LH	58.0	52.0	40.0	52.0	R	right	0.717099999905	136.0
n/a	n/a	h1	0.0	3.0	LH	40.0	62.0	40.0	52.0	L	left	0.6185	176.0
n/a	n/a	h1	0.0	4.0	LH	52.0	40.0	40.0	52.0	X	right	0.569100000024	216.0
n/a	n/a	h6	1.0	0.0	LH	58.0	58.0	60.0	64.0	R	right	0.585100000024	274.0
n/a	n/a	h6	1.0	1.0	LH	59.0	60.0	60.0	64.0	L	left	0.501600000024	333.0
n/a	n/a	h6	1.0	2.0	LH	61.0	64.0	60.0	64.0	R	right	1.10229999995	397.0
n/a	n/a	h6	1.0	3.0	LH	55.0	63.0	60.0	64.0	R	right	0.485100000024	460.0
n/a	n/a	h6	1.0	4.0	LH	69.0	69.0	60.0	64.0	X	left	0.851799999952	529.0
n/a	n/a	h6	1.0	5.0	LH	58.0	77.0	60.0	64.0	X	right	0.784899999976	606.0
n/a	n/a	h6	1.0	6.0	LH	51.0	47.0	60.0	64.0	X	left	0.536	657.0
n/a	n/a	h6	1.0	7.0	LH	52.0	56.0	60.0	64.0	X	right	0.433399999976	713.0
n/a	n/a	h6	1.0	8.0	LH	62.0	56.0	60.0	64.0	X	left	0.385100000024	775.0
n/a	n/a	h6	1.0	9.0	LH	61.0	72.0	60.0	64.0	X	left	0.334200000048	836.0
n/a	n/a	h1	2.0	0.0	LH	48.0	67.0	40.0	70.0	R	right	0.807100000024	903.0
n/a	n/a	h1	2.0	1.0	LH	47.0	62.0	40.0	70.0	L	left	1.19060000002	950.0
n/a	n/a	h1	2.0	2.0	LH	39.0	62.0	40.0	70.0	R	right	0.4505	1012.0
n/a	n/a	h1	2.0	3.0	LH	35.0	65.0	40.0	70.0	L	left	0.4175	1047.0
n/a	n/a	h1	2.0	4.0	LH	50.0	67.0	40.0	70.0	X	left	0.969800000071	1097.0
n/a	n/a	h1	3.0	0.0	LH	31.0	44.0	28.0	40.0	R	right	0.5915	1141.0
n/a	n/a	h1	3.0	1.0	LH	27.0	54.0	28.0	40.0	L	left	0.734700000048	1168.0
n/a	n/a	h1	3.0	2.0	LH	25.0	39.0	28.0	40.0	R	right	0.422100000024	1207.0
n/a	n/a	h1	3.0	3.0	LH	29.0	30.0	28.0	40.0	L	left	0.367399999976	1236.0
n/a	n/a	h1	3.0	4.0	LH	29.0	47.0	28.0	40.0	X	left	0.851399999976	1265.0
n/a	n/a	h1	4.0	0.0	HL	67.0	22.0	60.0	30.0	R	right	0.851400000095	1287.0
n/a	n/a	h1	4.0	1.0	HL	55.0	38.0	60.0	30.0	R	right	0.468200000048	1325.0
n/a	n/a	h1	4.0	2.0	HL	83.0	34.0	60.0	30.0	R	right	0.317799999952	1359.0
n/a	n/a	h1	4.0	3.0	HL	67.0	27.0	60.0	30.0	L	left	0.584700000048	1426.0
n/a	n/a	h1	4.0	4.0	HL	64.0	30.0	60.0	30.0	X	right	0.251	1456.0
n/a	n/a	h1	5.0	0.0	HL	75.0	55.0	72.0	60.0	L	left	0.633899999976	1531.0
n/a	n/a	h1	5.0	1.0	HL	62.0	75.0	72.0	60.0	R	right	0.158300000071	1606.0
n/a	n/a	h1	5.0	2.0	HL	69.0	58.0	72.0	60.0	L	left	0.5345	1675.0
n/a	n/a	h1	5.0	3.0	HL	69.0	50.0	72.0	60.0	R	right	0.217600000024	1725.0
n/a	n/a	h1	5.0	4.0	HL	81.0	50.0	72.0	60.0	X	left	0.808100000024	1806.0
n/a	n/a	h1	6.0	0.0	HL	62.0	66.0	68.0	60.0	R	right	0.4335	1872.0
n/a	n/a	h1	6.0	1.0	HL	76.0	44.0	68.0	60.0	L	left	0.3505	1948.0
n/a	n/a	h1	6.0	2.0	HL	60.0	51.0	68.0	60.0	L	left	0.451699999928	2008.0
n/a	n/a	h1	6.0	3.0	HL	57.0	54.0	68.0	60.0	R	right	0.233199999928	2062.0
n/a	n/a	h1	6.0	4.0	HL	63.0	47.0	68.0	60.0	X	right	0.917799999952	2109.0
n/a	n/a	h1	7.0	0.0	HL	39.0	32.0	44.0	40.0	L	left	2.03470000005	2148.0
n/a	n/a	h1	7.0	1.0	HL	49.0	52.0	44.0	40.0	L	left	0.333300000072	2197.0
n/a	n/a	h1	7.0	2.0	HL	39.0	32.0	44.0	40.0	L	left	0.184199999929	2236.0
n/a	n/a	h1	7.0	3.0	HL	36.0	47.0	44.0	40.0	R	right	0.416399999976	2283.0
n/a	n/a	h1	7.0	4.0	HL	39.0	37.0	44.0	40.0	X	right	0.471600000024	2320.0
n/a	n/a	h6	8.0	0.0	HL	96.0	65.0	90.0	60.0	L	left	0.5675	2416.0
n/a	n/a	h6	8.0	1.0	HL	88.0	57.0	90.0	60.0	L	left	0.267300000071	2504.0
n/a	n/a	h6	8.0	2.0	HL	84.0	59.0	90.0	60.0	R	right	0.417600000024	2563.0
n/a	n/a	h6	8.0	3.0	HL	76.0	67.0	90.0	60.0	R	right	0.301799999952	2630.0
n/a	n/a	h6	8.0	4.0	HL	99.0	71.0	90.0	60.0	X	left	0.275899999976	2729.0
n/a	n/a	h6	8.0	5.0	HL	92.0	41.0	90.0	60.0	X	left	0.258200000048	2821.0
n/a	n/a	h6	8.0	6.0	HL	81.0	65.0	90.0	60.0	X	left	0.339	2902.0
n/a	n/a	h6	8.0	7.0	HL	95.0	52.0	90.0	60.0	X	left	0.467699999928	2997.0
n/a	n/a	h6	8.0	8.0	HL	90.0	70.0	90.0	60.0	X	left	0.638699999928	3087.0
n/a	n/a	h6	8.0	9.0	HL	99.0	56.0	90.0	60.0	X	left	0.300099999905	3186.0
n/a	n/a	h6	9.0	0.0	HL	39.0	36.0	40.0	36.0	R	right	0.520800000072	3222.0
n/a	n/a	h6	9.0	1.0	HL	31.0	21.0	40.0	36.0	R	right	0.236200000048	3243.0
n/a	n/a	h6	9.0	2.0	HL	46.0	27.0	40.0	36.0	L	left	0.486600000024	3289.0
n/a	n/a	h6	9.0	3.0	HL	26.0	50.0	40.0	36.0	L	left	0.500600000024	3315.0
n/a	n/a	h6	9.0	4.0	HL	41.0	28.0	40.0	36.0	X	right	0.368100000024	3343.0
n/a	n/a	h6	9.0	5.0	HL	35.0	37.0	40.0	36.0	X	left	0.0841000000238	3378.0
n/a	n/a	h6	9.0	6.0	HL	36.0	38.0	40.0	36.0	X	right	0.0345999999046	3416.0
n/a	n/a	h6	9.0	7.0	HL	46.0	22.0	40.0	36.0	X	left	0.100799999952	3462.0
n/a	n/a	h6	9.0	8.0	HL	35.0	32.0	40.0	36.0	X	right	0.0744000000954	3494.0
n/a	n/a	h6	9.0	9.0	HL	37.0	30.0	40.0	36.0	X	left	0.0422000000477	3531.0
n/a	n/a	h1	10.0	0.0	HL	70.0	46.0	60.0	40.0	R	right	0.668299999952	3577.0
n/a	n/a	h1	10.0	1.0	HL	54.0	36.0	60.0	40.0	R	right	0.588399999976	3613.0
n/a	n/a	h1	10.0	2.0	HL	46.0	26.0	60.0	40.0	R	right	0.151599999905	3639.0
n/a	n/a	h1	10.0	3.0	HL	68.0	32.0	60.0	40.0	L	left	0.455700000048	3707.0
n/a	n/a	h1	10.0	4.0	HL	61.0	46.0	60.0	40.0	X	right	0.284300000072	3753.0
n/a	n/a	h1	11.0	0.0	HL	30.0	11.0	40.0	10.0	R	right	0.924600000024	3764.0
n/a	n/a	h1	11.0	1.0	HL	39.0	7.0	40.0	10.0	L	left	0.400600000024	3803.0
n/a	n/a	h1	11.0	2.0	HL	45.0	1.0	40.0	10.0	R	right	0.186699999928	3804.0
n/a	n/a	h1	11.0	3.0	HL	34.0	9.0	40.0	10.0	L	left	0.117600000024	3838.0
n/a	n/a	h1	11.0	4.0	HL	33.0	19.0	40.0	10.0	X	right	0.000600000023837	3857.0
n/a	n/a	h6	12.0	0.0	LH	27.0	80.0	30.0	60.0	R	right	0.719899999976	3937.0
n/a	n/a	h6	12.0	1.0	LH	40.0	61.0	30.0	60.0	R	right	1.08519999993	3998.0
n/a	n/a	h6	12.0	2.0	LH	20.0	58.0	30.0	60.0	L	left	0.367700000048	4018.0
n/a	n/a	h6	12.0	3.0	LH	25.0	65.0	30.0	60.0	L	left	0.268099999905	4043.0
n/a	n/a	h6	12.0	4.0	LH	34.0	60.0	30.0	60.0	X	left	0.100600000024	4077.0
n/a	n/a	h6	12.0	5.0	LH	33.0	53.0	30.0	60.0	X	right	0.0675	4130.0
n/a	n/a	h6	12.0	6.0	LH	33.0	73.0	30.0	60.0	X	right	0.336	4203.0
n/a	n/a	h6	12.0	7.0	LH	18.0	45.0	30.0	60.0	X	right	0.318200000048	4248.0
n/a	n/a	h6	12.0	8.0	LH	37.0	68.0	30.0	60.0	X	right	0.250900000095	4316.0
n/a	n/a	h6	12.0	9.0	LH	33.0	60.0	30.0	60.0	X	left	0.525100000024	4349.0
n/a	n/a	h6	13.0	0.0	LH	58.0	58.0	60.0	64.0	R	right	0.989299999952	4407.0
n/a	n/a	h6	13.0	1.0	LH	59.0	60.0	60.0	64.0	L	left	0.151	4466.0
n/a	n/a	h6	13.0	2.0	LH	61.0	64.0	60.0	64.0	R	right	0.0836000000238	4530.0
n/a	n/a	h6	13.0	3.0	LH	55.0	61.0	60.0	64.0	R	right	0.857800000072	4591.0
n/a	n/a	h6	13.0	4.0	LH	73.0	70.0	60.0	64.0	X	left	0.72	4664.0
n/a	n/a	h6	13.0	5.0	LH	69.0	59.0	60.0	64.0	X	right	0.158700000048	4723.0
n/a	n/a	h6	13.0	6.0	LH	58.0	75.0	60.0	64.0	X	left	0.338800000072	4781.0
n/a	n/a	h6	13.0	7.0	LH	61.0	68.0	60.0	64.0	X	right	0.175399999976	4849.0
n/a	n/a	h6	13.0	8.0	LH	58.0	56.0	60.0	64.0	X	left	0.117699999929	4907.0
n/a	n/a	h6	13.0	9.0	LH	62.0	79.0	60.0	64.0	X	right	0.100900000095	4986.0
n/a	n/a	h6	14.0	0.0	LH	44.0	39.0	40.0	48.0	R	right	0.505200000048	5025.0
n/a	n/a	h6	14.0	1.0	LH	50.0	55.0	40.0	48.0	R	right	0.407	5080.0
n/a	n/a	h6	14.0	2.0	LH	53.0	56.0	40.0	48.0	L	left	0.784799999952	5133.0
n/a	n/a	h6	14.0	3.0	LH	49.0	58.0	40.0	48.0	R	right	0.684699999929	5191.0
n/a	n/a	h6	14.0	4.0	LH	40.0	44.0	40.0	48.0	X	left	0.417700000048	5231.0
n/a	n/a	h6	14.0	5.0	LH	43.0	57.0	40.0	48.0	X	left	0.317799999952	5274.0
n/a	n/a	h6	14.0	6.0	LH	39.0	43.0	40.0	48.0	X	left	0.287100000024	5313.0
n/a	n/a	h6	14.0	7.0	LH	43.0	56.0	40.0	48.0	X	left	0.383299999952	5356.0
n/a	n/a	h6	14.0	8.0	LH	23.0	56.0	40.0	48.0	X	left	0.0666999999285	5379.0
n/a	n/a	h6	14.0	9.0	LH	42.0	49.0	40.0	48.0	X	left	0.184	5421.0
n/a	n/a	h1	15.0	0.0	HL	65.0	59.0	68.0	60.0	L	left	0.651399999976	5486.0
n/a	n/a	h1	15.0	1.0	HL	57.0	61.0	68.0	60.0	R	right	0.201	5547.0
n/a	n/a	h1	15.0	2.0	HL	54.0	48.0	68.0	60.0	L	left	0.217100000024	5601.0
n/a	n/a	h1	15.0	3.0	HL	70.0	58.0	68.0	60.0	L	left	0.851199999928	5671.0
n/a	n/a	h1	15.0	4.0	HL	69.0	51.0	68.0	60.0	X	right	0.350300000071	5722.0
n/a	n/a	h6	16.0	0.0	LH	72.0	71.0	60.0	64.0	L	left	1.144	5794.0
n/a	n/a	h6	16.0	1.0	LH	65.0	87.0	60.0	64.0	L	left	0.305700000048	5859.0
n/a	n/a	h6	16.0	2.0	LH	61.0	70.0	60.0	64.0	R	right	0.735399999976	5929.0
n/a	n/a	h6	16.0	3.0	LH	61.0	76.0	60.0	64.0	R	right	0.333799999952	6005.0
n/a	n/a	h6	16.0	4.0	LH	71.0	66.0	60.0	64.0	X	right	0.136600000024	6071.0
n/a	n/a	h6	16.0	5.0	LH	49.0	59.0	60.0	64.0	X	right	0.2725	6130.0
n/a	n/a	h6	16.0	6.0	LH	65.0	50.0	60.0	64.0	X	left	0.681300000072	6195.0
n/a	n/a	h6	16.0	7.0	LH	56.0	76.0	60.0	64.0	X	left	0.201	6251.0
n/a	n/a	h6	16.0	8.0	LH	58.0	59.0	60.0	64.0	X	right	0.252600000024	6310.0
n/a	n/a	h6	16.0	9.0	LH	71.0	64.0	60.0	64.0	X	left	0.701100000024	6381.0
n/a	n/a	h6	17.0	0.0	LH	43.0	58.0	40.0	52.0	L	left	1.88770000005	6424.0
n/a	n/a	h6	17.0	1.0	LH	32.0	39.0	40.0	52.0	R	right	0.9355	6463.0
n/a	n/a	h6	17.0	2.0	LH	45.0	53.0	40.0	52.0	L	left	0.251199999929	6508.0
n/a	n/a	h6	17.0	3.0	LH	62.0	60.0	40.0	52.0	R	right	0.206699999928	6568.0
n/a	n/a	h6	17.0	4.0	LH	32.0	54.0	40.0	52.0	X	left	0.232800000072	6600.0
n/a	n/a	h6	17.0	5.0	LH	52.0	51.0	40.0	52.0	X	right	0.424600000024	6651.0
n/a	n/a	h6	17.0	6.0	LH	46.0	54.0	40.0	52.0	X	right	0.401799999952	6705.0
n/a	n/a	h6	17.0	7.0	LH	55.0	58.0	40.0	52.0	X	left	0.234700000048	6760.0
n/a	n/a	h6	17.0	8.0	LH	47.0	61.0	40.0	52.0	X	right	0.204299999952	6821.0
n/a	n/a	h6	17.0	9.0	LH	48.0	45.0	40.0	52.0	X	left	0.734400000095	6869.0
n/a	n/a	h6	18.0	0.0	HL	28.0	15.0	40.0	20.0	L	left	1.06970000005	6897.0
n/a	n/a	h6	18.0	1.0	HL	53.0	16.0	40.0	20.0	L	left	0.350800000072	6950.0
n/a	n/a	h6	18.0	2.0	HL	55.0	28.0	40.0	20.0	L	left	1.3245	7005.0
n/a	n/a	h6	18.0	3.0	HL	53.0	20.0	40.0	20.0	R	right	0.334600000024	7025.0
n/a	n/a	h6	18.0	4.0	HL	53.0	3.0	40.0	20.0	X	left	0.117599999905	7078.0
n/a	n/a	h6	18.0	5.0	HL	40.0	15.0	40.0	20.0	X	left	0.458399999976	7118.0
n/a	n/a	h6	18.0	6.0	HL	45.0	4.0	40.0	20.0	X	left	0.306799999952	7163.0
n/a	n/a	h6	18.0	7.0	HL	41.0	28.0	40.0	20.0	X	left	0.0392000000477	7204.0
n/a	n/a	h6	18.0	8.0	HL	43.0	25.0	40.0	20.0	X	left	0.253300000071	7247.0
n/a	n/a	h6	18.0	9.0	HL	47.0	26.0	40.0	20.0	X	left	0.284100000024	7294.0
n/a	n/a	h1	19.0	0.0	LH	66.0	43.0	56.0	60.0	L	left	0.801300000071	7360.0
n/a	n/a	h1	19.0	1.0	LH	33.0	67.0	56.0	60.0	R	right	0.450300000071	7427.0
n/a	n/a	h1	19.0	2.0	LH	42.0	59.0	56.0	60.0	L	left	0.0724000000954	7469.0
n/a	n/a	h1	19.0	3.0	LH	55.0	64.0	56.0	60.0	R	right	0.184199999928	7533.0
n/a	n/a	h1	19.0	4.0	LH	47.0	58.0	56.0	60.0	X	left	0.0178999999761	7580.0
n/a	n/a	h1	20.0	0.0	LH	25.0	23.0	32.0	40.0	L	left	0.558399999976	7605.0
n/a	n/a	h1	20.0	1.0	LH	29.0	57.0	32.0	40.0	L	left	0.857600000024	7634.0
n/a	n/a	h1	20.0	2.0	LH	44.0	38.0	32.0	40.0	R	right	0.641300000072	7672.0
n/a	n/a	h1	20.0	3.0	LH	36.0	31.0	32.0	40.0	L	left	0.770399999976	7708.0
n/a	n/a	h1	20.0	4.0	LH	39.0	48.0	32.0	40.0	X	right	0.300600000024	7756.0
n/a	n/a	h6	21.0	0.0	HL	43.0	35.0	40.0	28.0	R	right	0.451799999952	7791.0
n/a	n/a	h6	21.0	1.0	HL	31.0	21.0	40.0	28.0	R	right	0.572	7812.0
n/a	n/a	h6	21.0	2.0	HL	40.0	28.0	40.0	28.0	R	right	0.217400000095	7840.0
n/a	n/a	h6	21.0	3.0	HL	36.0	23.0	40.0	28.0	L	left	0.934799999952	7876.0
n/a	n/a	h6	21.0	4.0	HL	40.0	27.0	40.0	28.0	X	left	0.250299999952	7916.0
n/a	n/a	h6	21.0	5.0	HL	46.0	20.0	40.0	28.0	X	left	0.450700000048	7962.0
n/a	n/a	h6	21.0	6.0	HL	50.0	21.0	40.0	28.0	X	left	0.202700000048	8012.0
n/a	n/a	h6	21.0	7.0	HL	41.0	37.0	40.0	28.0	X	left	0.150800000072	8053.0
n/a	n/a	h6	21.0	8.0	HL	44.0	19.0	40.0	28.0	X	left	0.150699999929	8097.0
n/a	n/a	h6	21.0	9.0	HL	37.0	25.0	40.0	28.0	X	left	0.133899999976	8134.0
n/a	n/a	h1	22.0	0.0	LH	32.0	76.0	40.0	60.0	L	left	0.706600000024	8166.0
n/a	n/a	h1	22.0	1.0	LH	37.0	65.0	40.0	60.0	R	right	0.273199999928	8231.0
n/a	n/a	h1	22.0	2.0	LH	46.0	68.0	40.0	60.0	L	left	0.134600000024	8277.0
n/a	n/a	h1	22.0	3.0	LH	37.0	69.0	40.0	60.0	R	right	0.0840999999045	8346.0
n/a	n/a	h1	22.0	4.0	LH	40.0	53.0	40.0	60.0	X	left	0.0898999999762	8386.0
n/a	n/a	h6	23.0	0.0	HL	49.0	36.0	60.0	40.0	L	left	0.418700000048	8435.0
n/a	n/a	h6	23.0	1.0	HL	68.0	43.0	60.0	40.0	R	right	0.1075	8478.0
n/a	n/a	h6	23.0	2.0	HL	55.0	40.0	60.0	40.0	L	left	0.250799999952	8533.0
n/a	n/a	h6	23.0	3.0	HL	67.0	41.0	60.0	40.0	R	right	0.419399999976	8574.0
n/a	n/a	h6	23.0	4.0	HL	49.0	34.0	60.0	40.0	X	right	0.286200000048	8608.0
n/a	n/a	h6	23.0	5.0	HL	57.0	35.0	60.0	40.0	X	right	0.667799999952	8643.0
n/a	n/a	h6	23.0	6.0	HL	55.0	50.0	60.0	40.0	X	right	0.1005	8693.0
n/a	n/a	h6	23.0	7.0	HL	54.0	28.0	60.0	40.0	X	right	0.483800000071	8721.0
n/a	n/a	h6	23.0	8.0	HL	66.0	35.0	60.0	40.0	X	right	0.150600000024	8756.0
n/a	n/a	h6	23.0	9.0	HL	54.0	40.0	60.0	40.0	X	right	0.331199999928	8796.0
n/a	n/a	h6	24.0	0.0	LH	40.0	38.0	40.0	48.0	L	left	0.117900000095	8836.0
n/a	n/a	h6	24.0	1.0	LH	37.0	44.0	40.0	48.0	L	left	0.901	8873.0
n/a	n/a	h6	24.0	2.0	LH	60.0	44.0	40.0	48.0	R	right	0.2185	8917.0
n/a	n/a	h6	24.0	3.0	LH	42.0	52.0	40.0	48.0	R	right	0.668	8969.0
n/a	n/a	h6	24.0	4.0	LH	52.0	55.0	40.0	48.0	X	right	0.150600000024	9024.0
n/a	n/a	h6	24.0	5.0	LH	46.0	51.0	40.0	48.0	X	right	0.1165	9075.0
n/a	n/a	h6	24.0	6.0	LH	50.0	51.0	40.0	48.0	X	right	0.541699999928	9126.0
n/a	n/a	h6	24.0	7.0	LH	47.0	34.0	40.0	48.0	X	right	0.0671999999284	9160.0
n/a	n/a	h6	24.0	8.0	LH	30.0	49.0	40.0	48.0	X	right	0.121200000048	9209.0
n/a	n/a	h6	24.0	9.0	LH	29.0	53.0	40.0	48.0	X	right	0.0842000000476	9262.0
n/a	n/a	h6	25.0	0.0	LH	25.0	48.0	20.0	40.0	L	left	0.552200000048	9287.0
n/a	n/a	h6	25.0	1.0	LH	20.0	48.0	20.0	40.0	R	right	0.276899999976	9335.0
n/a	n/a	h6	25.0	2.0	LH	8.0	28.0	20.0	40.0	R	right	0.170200000048	9363.0
n/a	n/a	h6	25.0	3.0	LH	22.0	33.0	20.0	40.0	L	left	0.139600000024	9385.0
n/a	n/a	h6	25.0	4.0	LH	29.0	28.0	20.0	40.0	X	right	0.0840999999047	9413.0
n/a	n/a	h6	25.0	5.0	LH	16.0	39.0	20.0	40.0	X	left	0.0873000000715	9429.0
n/a	n/a	h6	25.0	6.0	LH	41.0	51.0	20.0	40.0	X	right	0.133700000048	9480.0
n/a	n/a	h6	25.0	7.0	LH	22.0	35.0	20.0	40.0	X	right	0.0903999999761	9515.0
n/a	n/a	h6	25.0	8.0	LH	30.0	50.0	20.0	40.0	X	left	0.0673999999761	9545.0
n/a	n/a	h6	25.0	9.0	LH	14.0	34.0	20.0	40.0	X	right	0.137699999928	9579.0
n/a	n/a	h6	26.0	0.0	LH	69.0	60.0	56.0	60.0	R	right	0.703700000048	9639.0
n/a	n/a	h6	26.0	1.0	LH	55.0	53.0	56.0	60.0	L	left	0.340799999952	9694.0
n/a	n/a	h6	26.0	2.0	LH	57.0	59.0	56.0	60.0	L	left	1.05779999995	9751.0
n/a	n/a	h6	26.0	3.0	LH	62.0	46.0	56.0	60.0	L	left	0.7345	9813.0
n/a	n/a	h6	26.0	4.0	LH	50.0	63.0	56.0	60.0	X	right	0.674800000072	9876.0
n/a	n/a	h6	26.0	5.0	LH	65.0	68.0	56.0	60.0	X	right	0.353	9944.0
n/a	n/a	h6	26.0	6.0	LH	59.0	64.0	56.0	60.0	X	left	0.0845	10003.0
n/a	n/a	h6	26.0	7.0	LH	46.0	52.0	56.0	60.0	X	left	0.539100000024	10049.0
n/a	n/a	h6	26.0	8.0	LH	68.0	58.0	56.0	60.0	X	right	0.0173999999762	10107.0
n/a	n/a	h6	26.0	9.0	LH	62.0	62.0	56.0	60.0	X	left	0.151299999952	10169.0
n/a	n/a	h1	27.0	0.0	HL	57.0	35.0	60.0	40.0	L	left	0.916200000048	10226.0
n/a	n/a	h1	27.0	1.0	HL	63.0	50.0	60.0	40.0	R	right	0.250800000072	10276.0
n/a	n/a	h1	27.0	2.0	HL	57.0	53.0	60.0	40.0	L	left	0.151	10333.0
n/a	n/a	h1	27.0	3.0	HL	54.0	48.0	60.0	40.0	R	right	0.117899999976	10381.0
n/a	n/a	h1	27.0	4.0	HL	62.0	36.0	60.0	40.0	X	left	0.200899999976	10443.0
n/a	n/a	h6	28.0	0.0	HL	43.0	26.0	40.0	28.0	R	right	0.516599999905	10469.0
n/a	n/a	h6	28.0	1.0	HL	31.0	21.0	40.0	28.0	R	right	0.32	10490.0
n/a	n/a	h6	28.0	2.0	HL	36.0	25.0	40.0	28.0	R	right	0.317799999952	10515.0
n/a	n/a	h6	28.0	3.0	HL	40.0	23.0	40.0	28.0	L	left	0.276	10555.0
n/a	n/a	h6	28.0	4.0	HL	40.0	18.0	40.0	28.0	X	right	0.402	10573.0
n/a	n/a	h6	28.0	5.0	HL	42.0	29.0	40.0	28.0	X	left	0.117200000048	10615.0
n/a	n/a	h6	28.0	6.0	HL	38.0	28.0	40.0	28.0	X	right	0.183699999929	10643.0
n/a	n/a	h6	28.0	7.0	HL	43.0	28.0	40.0	28.0	X	left	0.0705	10686.0
n/a	n/a	h6	28.0	8.0	HL	43.0	29.0	40.0	28.0	X	left	0.166200000048	10729.0
n/a	n/a	h6	28.0	9.0	HL	45.0	35.0	40.0	28.0	X	left	0.200700000048	10774.0
n/a	n/a	h6	29.0	0.0	LH	22.0	58.0	40.0	52.0	L	left	2.07170000005	10796.0
n/a	n/a	h6	29.0	1.0	LH	32.0	51.0	40.0	52.0	R	right	0.140600000024	10847.0
n/a	n/a	h6	29.0	2.0	LH	62.0	53.0	40.0	52.0	L	left	0.501700000048	10909.0
n/a	n/a	h6	29.0	3.0	LH	52.0	54.0	40.0	52.0	R	right	0.117699999929	10963.0
n/a	n/a	h6	29.0	4.0	LH	37.0	56.0	40.0	52.0	X	right	0.602799999952	11019.0
n/a	n/a	h6	29.0	5.0	LH	45.0	43.0	40.0	52.0	X	right	0.184599999905	11062.0
n/a	n/a	h6	29.0	6.0	LH	55.0	51.0	40.0	52.0	X	right	0.200699999928	11113.0
n/a	n/a	h6	29.0	7.0	LH	45.0	42.0	40.0	52.0	X	right	0.151099999905	11155.0
n/a	n/a	h6	29.0	8.0	LH	49.0	39.0	40.0	52.0	X	right	0.156100000024	11194.0
n/a	n/a	h6	29.0	9.0	LH	34.0	68.0	40.0	52.0	X	right	0.164799999952	11262.0
n/a	n/a	h1	30.0	0.0	LH	43.0	75.0	40.0	70.0	R	right	0.367699999929	11337.0
n/a	n/a	h1	30.0	1.0	LH	30.0	80.0	40.0	70.0	R	right	0.335299999952	11417.0
n/a	n/a	h1	30.0	2.0	LH	40.0	70.0	40.0	70.0	R	right	0.186399999976	11487.0
n/a	n/a	h1	30.0	3.0	LH	22.0	65.0	40.0	70.0	L	left	0.373300000071	11509.0
n/a	n/a	h1	30.0	4.0	LH	40.0	78.0	40.0	70.0	X	right	0.302100000024	11587.0
n/a	n/a	h1	31.0	0.0	HL	60.0	66.0	68.0	60.0	R	right	0.453	11653.0
n/a	n/a	h1	31.0	1.0	HL	62.0	54.0	68.0	60.0	L	left	0.101199999929	11715.0
n/a	n/a	h1	31.0	2.0	HL	76.0	51.0	68.0	60.0	L	left	0.739099999905	11791.0
n/a	n/a	h1	31.0	3.0	HL	57.0	60.0	68.0	60.0	R	right	0.151199999929	11851.0
n/a	n/a	h1	31.0	4.0	HL	64.0	44.0	68.0	60.0	X	left	0.034	11915.0
n/a	n/a	h1	32.0	0.0	HL	30.0	7.0	40.0	10.0	R	right	0.237699999929	11922.0
n/a	n/a	h1	32.0	1.0	HL	39.0	11.0	40.0	10.0	L	left	0.157199999928	11961.0
n/a	n/a	h1	32.0	2.0	HL	45.0	1.0	40.0	10.0	R	right	0.150800000072	11962.0
n/a	n/a	h1	32.0	3.0	HL	46.0	17.0	40.0	10.0	L	left	0.134200000048	12008.0
n/a	n/a	h1	32.0	4.0	HL	34.0	9.0	40.0	10.0	X	right	0.151399999976	12017.0
n/a	n/a	h6	33.0	0.0	HL	49.0	41.0	60.0	40.0	L	left	0.618	12066.0
n/a	n/a	h6	33.0	1.0	HL	68.0	43.0	60.0	40.0	R	right	0.101	12109.0
n/a	n/a	h6	33.0	2.0	HL	67.0	40.0	60.0	40.0	L	left	0.0895	12176.0
n/a	n/a	h6	33.0	3.0	HL	55.0	36.0	60.0	40.0	R	right	0.151299999952	12212.0
n/a	n/a	h6	33.0	4.0	HL	59.0	49.0	60.0	40.0	X	left	0.100400000095	12271.0
n/a	n/a	h6	33.0	5.0	HL	60.0	28.0	60.0	40.0	X	right	0.0883999999761	12299.0
n/a	n/a	h6	33.0	6.0	HL	50.0	48.0	60.0	40.0	X	left	0.0183000000715	12349.0
n/a	n/a	h6	33.0	7.0	HL	64.0	50.0	60.0	40.0	X	left	0.3915	12413.0
n/a	n/a	h6	33.0	8.0	HL	57.0	31.0	60.0	40.0	X	right	0.117399999976	12444.0
n/a	n/a	h6	33.0	9.0	HL	54.0	45.0	60.0	40.0	X	left	0.1505	12498.0
n/a	n/a	h6	34.0	0.0	LH	62.0	77.0	60.0	80.0	L	left	0.900100000024	12560.0
n/a	n/a	h6	34.0	1.0	LH	60.0	67.0	60.0	80.0	L	left	0.337899999976	12620.0
n/a	n/a	h6	34.0	2.0	LH	58.0	68.0	60.0	80.0	L	left	0.220799999952	12678.0
n/a	n/a	h6	34.0	3.0	LH	57.0	78.0	60.0	80.0	R	right	0.517699999928	12756.0
n/a	n/a	h6	34.0	4.0	LH	66.0	90.0	60.0	80.0	X	left	0.100399999976	12822.0
n/a	n/a	h6	34.0	5.0	LH	81.0	75.0	60.0	80.0	X	right	0.101600000024	12897.0
n/a	n/a	h6	34.0	6.0	LH	67.0	84.0	60.0	80.0	X	left	0.0843999999761	12964.0
n/a	n/a	h6	34.0	7.0	LH	53.0	68.0	60.0	80.0	X	right	0.0508000000715	13032.0
n/a	n/a	h6	34.0	8.0	LH	72.0	88.0	60.0	80.0	X	left	0.0181999999285	13104.0
n/a	n/a	h6	34.0	9.0	LH	58.0	63.0	60.0	80.0	X	right	0.0668999999762	13167.0
n/a	n/a	h6	35.0	0.0	LH	27.0	48.0	30.0	60.0	R	right	0.820399999976	13215.0
n/a	n/a	h6	35.0	1.0	LH	40.0	61.0	30.0	60.0	R	right	0.601399999976	13276.0
n/a	n/a	h6	35.0	2.0	LH	20.0	58.0	30.0	60.0	L	left	0.854	13296.0
n/a	n/a	h6	35.0	3.0	LH	38.0	65.0	30.0	60.0	L	left	0.483899999976	13334.0
n/a	n/a	h6	35.0	4.0	LH	30.0	62.0	30.0	60.0	X	left	0.267300000072	13364.0
n/a	n/a	h6	35.0	5.0	LH	25.0	58.0	30.0	60.0	X	left	0.318	13389.0
n/a	n/a	h6	35.0	6.0	LH	32.0	69.0	30.0	60.0	X	left	0.184099999905	13421.0
n/a	n/a	h6	35.0	7.0	LH	38.0	65.0	30.0	60.0	X	left	0.2	13459.0
n/a	n/a	h6	35.0	8.0	LH	40.0	80.0	30.0	60.0	X	left	0.304300000072	13499.0
n/a	n/a	h6	35.0	9.0	LH	18.0	68.0	30.0	60.0	X	right	0.217799999952	13567.0
n/a	n/a	h1	36.0	0.0	HL	70.0	37.0	60.0	40.0	R	right	0.857399999976	13604.0
n/a	n/a	h1	36.0	1.0	HL	68.0	36.0	60.0	40.0	R	right	0.267899999976	13640.0
n/a	n/a	h1	36.0	2.0	HL	46.0	26.0	60.0	40.0	R	right	0.142399999976	13666.0
n/a	n/a	h1	36.0	3.0	HL	54.0	32.0	60.0	40.0	L	left	0.399799999952	13720.0
n/a	n/a	h1	36.0	4.0	HL	54.0	46.0	60.0	40.0	X	right	0.0908999999762	13766.0
n/a	n/a	h1	37.0	0.0	LH	51.0	75.0	48.0	60.0	R	right	0.184800000072	13841.0
n/a	n/a	h1	37.0	1.0	LH	58.0	57.0	48.0	60.0	R	right	0.517600000024	13898.0
n/a	n/a	h1	37.0	2.0	LH	46.0	58.0	48.0	60.0	L	left	0.4185	13944.0
n/a	n/a	h1	37.0	3.0	LH	40.0	48.0	48.0	60.0	R	right	0.0672000000477	13992.0
n/a	n/a	h1	37.0	4.0	LH	42.0	54.0	48.0	60.0	X	left	0.600899999976	14034.0
n/a	n/a	h6	38.0	0.0	HL	77.0	45.0	70.0	40.0	L	left	0.552300000072	14111.0
n/a	n/a	h6	38.0	1.0	HL	68.0	29.0	70.0	40.0	L	left	0.384100000024	14179.0
n/a	n/a	h6	38.0	2.0	HL	71.0	27.0	70.0	40.0	L	left	0.3835	14250.0
n/a	n/a	h6	38.0	3.0	HL	82.0	35.0	70.0	40.0	R	right	0.234299999952	14285.0
n/a	n/a	h6	38.0	4.0	HL	64.0	43.0	70.0	40.0	X	right	0.242300000072	14328.0
n/a	n/a	h6	38.0	5.0	HL	56.0	43.0	70.0	40.0	X	right	0.283699999928	14371.0
n/a	n/a	h6	38.0	6.0	HL	73.0	47.0	70.0	40.0	X	right	0.151200000048	14418.0
n/a	n/a	h6	38.0	7.0	HL	80.0	40.0	70.0	40.0	X	right	0.3345	14458.0
n/a	n/a	h6	38.0	8.0	HL	71.0	44.0	70.0	40.0	X	right	0.206299999952	14502.0
n/a	n/a	h6	38.0	9.0	HL	83.0	48.0	70.0	40.0	X	right	0.318299999952	14550.0
n/a	n/a	h1	39.0	0.0	HL	39.0	32.0	44.0	40.0	L	left	0.752	14589.0
n/a	n/a	h1	39.0	1.0	HL	36.0	52.0	44.0	40.0	L	left	0.584600000024	14625.0
n/a	n/a	h1	39.0	2.0	HL	39.0	47.0	44.0	40.0	L	left	0.519899999976	14664.0
n/a	n/a	h1	39.0	3.0	HL	49.0	32.0	44.0	40.0	R	right	1.0345	14696.0
n/a	n/a	h1	39.0	4.0	HL	55.0	46.0	44.0	40.0	X	left	1.14079999995	14751.0
n/a	n/a	h6	40.0	0.0	HL	36.0	38.0	40.0	28.0	L	left	3.46969999993	14787.0
n/a	n/a	h6	40.0	1.0	HL	37.0	40.0	40.0	28.0	L	left	0.584399999976	14824.0
n/a	n/a	h6	40.0	2.0	HL	33.0	23.0	40.0	28.0	R	right	0.434400000095	14847.0
n/a	n/a	h6	40.0	3.0	HL	44.0	27.0	40.0	28.0	R	right	0.951599999905	14874.0
n/a	n/a	h6	40.0	4.0	HL	22.0	36.0	40.0	28.0	X	right	0.699599999905	14910.0
n/a	n/a	h6	40.0	5.0	HL	47.0	30.0	40.0	28.0	X	right	0.485100000024	14940.0
n/a	n/a	h6	40.0	6.0	HL	31.0	16.0	40.0	28.0	X	right	0.340100000024	14956.0
n/a	n/a	h6	40.0	7.0	HL	47.0	34.0	40.0	28.0	X	right	0.2845	14990.0
n/a	n/a	h6	40.0	8.0	HL	39.0	20.0	40.0	28.0	X	right	0.284300000072	15010.0
n/a	n/a	h6	40.0	9.0	HL	37.0	36.0	40.0	28.0	X	right	0.317799999952	15046.0
n/a	n/a	h1	41.0	0.0	LH	65.0	58.0	52.0	60.0	L	left	0.651200000048	15111.0
n/a	n/a	h1	41.0	1.0	LH	49.0	64.0	52.0	60.0	L	left	0.584600000024	15160.0
n/a	n/a	h1	41.0	2.0	LH	52.0	73.0	52.0	60.0	R	right	0.351	15233.0
n/a	n/a	h1	41.0	3.0	LH	52.0	64.0	52.0	60.0	R	right	0.251299999952	15297.0
n/a	n/a	h1	41.0	4.0	LH	52.0	62.0	52.0	60.0	X	left	0.367299999952	15349.0
n/a	n/a	h1	42.0	0.0	LH	22.0	75.0	40.0	70.0	R	right	0.417299999952	15424.0
n/a	n/a	h1	42.0	1.0	LH	30.0	65.0	40.0	70.0	R	right	0.209899999976	15489.0
n/a	n/a	h1	42.0	2.0	LH	40.0	70.0	40.0	70.0	R	right	0.134100000024	15559.0
n/a	n/a	h1	42.0	3.0	LH	43.0	80.0	40.0	70.0	L	left	0.558800000072	15602.0
n/a	n/a	h1	42.0	4.0	LH	44.0	86.0	40.0	70.0	X	right	0.121299999952	15688.0
n/a	n/a	h1	43.0	0.0	LH	32.0	50.0	36.0	40.0	L	left	0.768200000048	15720.0
n/a	n/a	h1	43.0	1.0	LH	39.0	44.0	36.0	40.0	R	right	0.523700000048	15764.0
n/a	n/a	h1	43.0	2.0	LH	27.0	48.0	36.0	40.0	L	left	0.418	15791.0
n/a	n/a	h1	43.0	3.0	LH	44.0	31.0	36.0	40.0	L	left	0.583899999976	15835.0
n/a	n/a	h1	43.0	4.0	LH	42.0	45.0	36.0	40.0	X	right	0.301299999952	15880.0
n/a	n/a	h1	44.0	0.0	HL	58.0	57.0	64.0	60.0	L	left	0.617700000048	15938.0
n/a	n/a	h1	44.0	1.0	HL	68.0	62.0	64.0	60.0	R	right	0.103799999952	16000.0
n/a	n/a	h1	44.0	2.0	HL	61.0	75.0	64.0	60.0	L	left	0.101299999952	16061.0
n/a	n/a	h1	44.0	3.0	HL	44.0	57.0	64.0	60.0	R	right	0.0396000000238	16118.0
n/a	n/a	h1	44.0	4.0	HL	65.0	64.0	64.0	60.0	X	left	0.167799999952	16183.0
n/a	n/a	h1	45.0	0.0	HL	60.0	55.0	72.0	60.0	L	left	0.471	16243.0
n/a	n/a	h1	45.0	1.0	HL	69.0	48.0	72.0	60.0	R	right	0.299899999976	16291.0
n/a	n/a	h1	45.0	2.0	HL	62.0	75.0	72.0	60.0	L	left	0.233899999976	16353.0
n/a	n/a	h1	45.0	3.0	HL	69.0	50.0	72.0	60.0	R	right	0.184600000024	16403.0
n/a	n/a	h1	45.0	4.0	HL	75.0	58.0	72.0	60.0	X	left	0.234700000048	16478.0
n/a	n/a	h6	46.0	0.0	LH	72.0	71.0	60.0	64.0	L	left	0.775299999952	16550.0
n/a	n/a	h6	46.0	1.0	LH	61.0	87.0	60.0	64.0	L	left	0.303899999976	16611.0
n/a	n/a	h6	46.0	2.0	LH	49.0	70.0	60.0	64.0	R	right	0.374100000024	16681.0
n/a	n/a	h6	46.0	3.0	LH	61.0	65.0	60.0	64.0	R	right	0.268	16746.0
n/a	n/a	h6	46.0	4.0	LH	70.0	72.0	60.0	64.0	X	left	0.437899999976	16816.0
n/a	n/a	h6	46.0	5.0	LH	69.0	65.0	60.0	64.0	X	right	0.267	16881.0
n/a	n/a	h6	46.0	6.0	LH	60.0	52.0	60.0	64.0	X	left	0.235299999952	16941.0
n/a	n/a	h6	46.0	7.0	LH	63.0	61.0	60.0	64.0	X	right	0.0341000000238	17002.0
n/a	n/a	h6	46.0	8.0	LH	58.0	76.0	60.0	64.0	X	left	0.00369999992847	17060.0
n/a	n/a	h6	46.0	9.0	LH	54.0	59.0	60.0	64.0	X	left	0.167399999976	17114.0
n/a	n/a	h1	47.0	0.0	HL	67.0	59.0	68.0	60.0	L	left	0.505399999976	17181.0
n/a	n/a	h1	47.0	1.0	HL	54.0	58.0	68.0	60.0	R	right	0.301199999928	17239.0
n/a	n/a	h1	47.0	2.0	HL	57.0	48.0	68.0	60.0	L	left	0.318600000024	17296.0
n/a	n/a	h1	47.0	3.0	HL	65.0	61.0	68.0	60.0	L	left	0.2505	17361.0
n/a	n/a	h1	47.0	4.0	HL	70.0	45.0	68.0	60.0	X	left	0.3915	17431.0
n/a	n/a	h1	48.0	0.0	HL	67.0	16.0	60.0	30.0	R	right	0.534600000024	17447.0
n/a	n/a	h1	48.0	1.0	HL	67.0	38.0	60.0	30.0	R	right	0.288100000024	17485.0
n/a	n/a	h1	48.0	2.0	HL	83.0	27.0	60.0	30.0	R	right	0.267900000095	17512.0
n/a	n/a	h1	48.0	3.0	HL	55.0	34.0	60.0	30.0	L	left	0.450799999952	17567.0
n/a	n/a	h1	48.0	4.0	HL	70.0	22.0	60.0	30.0	X	right	0.116399999976	17589.0
n/a	n/a	h6	49.0	0.0	HL	72.0	45.0	70.0	40.0	L	left	1.53960000002	17661.0
n/a	n/a	h6	49.0	1.0	HL	68.0	29.0	70.0	40.0	L	left	0.200400000095	17729.0
n/a	n/a	h6	49.0	2.0	HL	64.0	27.0	70.0	40.0	L	left	0.207600000024	17793.0
n/a	n/a	h6	49.0	3.0	HL	82.0	31.0	70.0	40.0	R	right	0.417700000048	17824.0
n/a	n/a	h6	49.0	4.0	HL	77.0	23.0	70.0	40.0	X	left	0.468100000024	17901.0
n/a	n/a	h6	49.0	5.0	HL	74.0	35.0	70.0	40.0	X	left	0.320599999905	17975.0
n/a	n/a	h6	49.0	6.0	HL	86.0	53.0	70.0	40.0	X	left	0.286899999976	18061.0
n/a	n/a	h6	49.0	7.0	HL	68.0	32.0	70.0	40.0	X	left	0.384199999928	18129.0
n/a	n/a	h6	49.0	8.0	HL	71.0	27.0	70.0	40.0	X	left	0.334199999929	18200.0
n/a	n/a	h6	49.0	9.0	HL	67.0	43.0	70.0	40.0	X	left	0.250399999976	18267.0
n/a	n/a	h6	50.0	0.0	HL	89.0	65.0	90.0	60.0	L	left	0.500899999976	18356.0
n/a	n/a	h6	50.0	1.0	HL	88.0	57.0	90.0	60.0	L	left	0.184	18444.0
n/a	n/a	h6	50.0	2.0	HL	84.0	72.0	90.0	60.0	R	right	0.2675	18516.0
n/a	n/a	h6	50.0	3.0	HL	76.0	67.0	90.0	60.0	R	right	0.517599999905	18583.0
n/a	n/a	h6	50.0	4.0	HL	96.0	66.0	90.0	60.0	X	left	0.353600000024	18679.0
n/a	n/a	h6	50.0	5.0	HL	99.0	61.0	90.0	60.0	X	right	0.117800000071	18740.0
n/a	n/a	h6	50.0	6.0	HL	84.0	67.0	90.0	60.0	X	right	0.486099999905	18807.0
n/a	n/a	h6	50.0	7.0	HL	91.0	70.0	90.0	60.0	X	right	0.535399999976	18877.0
n/a	n/a	h6	50.0	8.0	HL	85.0	51.0	90.0	60.0	X	left	0.0675	18962.0
n/a	n/a	h6	50.0	9.0	HL	83.0	59.0	90.0	60.0	X	left	0.0566000000239	19045.0
n/a	n/a	h6	51.0	0.0	HL	60.0	51.0	60.0	52.0	R	right	0.722399999976	19096.0
n/a	n/a	h6	51.0	1.0	HL	55.0	43.0	60.0	52.0	L	left	0.4345	19151.0
n/a	n/a	h6	51.0	2.0	HL	59.0	62.0	60.0	52.0	L	left	0.534	19210.0
n/a	n/a	h6	51.0	3.0	HL	53.0	52.0	60.0	52.0	R	right	0.2175	19262.0
n/a	n/a	h6	51.0	4.0	HL	52.0	57.0	60.0	52.0	X	left	0.2185	19314.0
n/a	n/a	h6	51.0	5.0	HL	78.0	49.0	60.0	52.0	X	right	0.138399999976	19363.0
n/a	n/a	h6	51.0	6.0	HL	44.0	61.0	60.0	52.0	X	right	0.375399999976	19424.0
n/a	n/a	h6	51.0	7.0	HL	65.0	44.0	60.0	52.0	X	right	0.516200000048	19468.0
n/a	n/a	h6	51.0	8.0	HL	60.0	42.0	60.0	52.0	X	left	0.0678999999761	19528.0
n/a	n/a	h6	51.0	9.0	HL	59.0	67.0	60.0	52.0	X	left	0.451100000024	19587.0
n/a	n/a	h6	52.0	0.0	LH	40.0	38.0	40.0	48.0	L	left	0.517399999976	19627.0
n/a	n/a	h6	52.0	1.0	LH	42.0	44.0	40.0	48.0	L	left	0.471199999928	19669.0
n/a	n/a	h6	52.0	2.0	LH	60.0	47.0	40.0	48.0	R	right	0.334900000095	19716.0
n/a	n/a	h6	52.0	3.0	LH	37.0	52.0	40.0	48.0	R	right	0.218799999952	19768.0
n/a	n/a	h6	52.0	4.0	LH	31.0	59.0	40.0	48.0	X	right	0.1675	19827.0
n/a	n/a	h6	52.0	5.0	LH	39.0	40.0	40.0	48.0	X	right	0.117299999952	19867.0
n/a	n/a	h6	52.0	6.0	LH	43.0	44.0	40.0	48.0	X	right	0.184600000024	19911.0
n/a	n/a	h6	52.0	7.0	LH	50.0	47.0	40.0	48.0	X	right	0.0676000000238	19958.0
n/a	n/a	h6	52.0	8.0	LH	55.0	41.0	40.0	48.0	X	right	0.138400000095	19999.0
n/a	n/a	h6	52.0	9.0	LH	34.0	45.0	40.0	48.0	X	right	0.118300000071	20044.0
n/a	n/a	h6	53.0	0.0	LH	19.0	45.0	30.0	60.0	R	right	0.584599999905	20089.0
n/a	n/a	h6	53.0	1.0	LH	39.0	62.0	30.0	60.0	L	left	0.268100000024	20128.0
n/a	n/a	h6	53.0	2.0	LH	24.0	65.0	30.0	60.0	L	left	0.384899999976	20152.0
n/a	n/a	h6	53.0	3.0	LH	42.0	55.0	30.0	60.0	L	left	0.254800000072	20194.0
n/a	n/a	h6	53.0	4.0	LH	37.0	72.0	30.0	60.0	X	left	0.133799999952	20231.0
n/a	n/a	h6	53.0	5.0	LH	31.0	61.0	30.0	60.0	X	left	0.152699999928	20262.0
n/a	n/a	h6	53.0	6.0	LH	33.0	50.0	30.0	60.0	X	left	0.135299999952	20295.0
n/a	n/a	h6	53.0	7.0	LH	29.0	88.0	30.0	60.0	X	left	0.183799999952	20324.0
n/a	n/a	h6	53.0	8.0	LH	11.0	62.0	30.0	60.0	X	left	0.521200000048	20335.0
n/a	n/a	h6	53.0	9.0	LH	44.0	70.0	30.0	60.0	X	left	0.784399999976	20379.0
n/a	n/a	h6	54.0	0.0	HL	41.0	38.0	40.0	28.0	L	left	1.9525	20420.0
n/a	n/a	h6	54.0	1.0	HL	37.0	27.0	40.0	28.0	L	left	0.3675	20457.0
n/a	n/a	h6	54.0	2.0	HL	33.0	23.0	40.0	28.0	R	right	0.584399999976	20480.0
n/a	n/a	h6	54.0	3.0	HL	44.0	40.0	40.0	28.0	R	right	0.317899999976	20520.0
n/a	n/a	h6	54.0	4.0	HL	27.0	30.0	40.0	28.0	X	left	0.467700000048	20547.0
n/a	n/a	h6	54.0	5.0	HL	36.0	28.0	40.0	28.0	X	right	0.117899999976	20575.0
n/a	n/a	h6	54.0	6.0	HL	45.0	35.0	40.0	28.0	X	left	0.000499999999988	20620.0
n/a	n/a	h6	54.0	7.0	HL	44.0	28.0	40.0	28.0	X	right	0.0718000000714	20648.0
n/a	n/a	h6	54.0	8.0	HL	42.0	30.0	40.0	28.0	X	right	0.682399999976	20678.0
n/a	n/a	h6	54.0	9.0	HL	45.0	31.0	40.0	28.0	X	right	0.202899999976	20709.0
n/a	n/a	h1	55.0	0.0	LH	40.0	64.0	40.0	52.0	L	left	0.384	20749.0
n/a	n/a	h1	55.0	1.0	LH	34.0	52.0	40.0	52.0	L	left	0.369700000048	20783.0
n/a	n/a	h1	55.0	2.0	LH	40.0	58.0	40.0	52.0	R	right	0.350700000048	20841.0
n/a	n/a	h1	55.0	3.0	LH	58.0	62.0	40.0	52.0	L	left	0.117600000024	20899.0
n/a	n/a	h1	55.0	4.0	LH	44.0	48.0	40.0	52.0	X	right	0.100700000048	20947.0
n/a	n/a	h6	56.0	0.0	HL	60.0	56.0	60.0	52.0	R	right	0.569	21003.0
n/a	n/a	h6	56.0	1.0	HL	67.0	49.0	60.0	52.0	L	left	0.301200000048	21070.0
n/a	n/a	h6	56.0	2.0	HL	67.0	51.0	60.0	52.0	R	right	0.154300000072	21121.0
n/a	n/a	h6	56.0	3.0	HL	69.0	59.0	60.0	52.0	R	right	0.666699999928	21180.0
n/a	n/a	h6	56.0	4.0	HL	70.0	78.0	60.0	52.0	X	right	0.1005	21258.0
n/a	n/a	h6	56.0	5.0	HL	55.0	45.0	60.0	52.0	X	right	0.1335	21303.0
n/a	n/a	h6	56.0	6.0	HL	75.0	51.0	60.0	52.0	X	right	0.0839000000955	21354.0
n/a	n/a	h6	56.0	7.0	HL	66.0	67.0	60.0	52.0	X	right	0.0672999999523	21421.0
n/a	n/a	h6	56.0	8.0	HL	61.0	45.0	60.0	52.0	X	right	0.451399999976	21466.0
n/a	n/a	h6	56.0	9.0	HL	60.0	63.0	60.0	52.0	X	right	0.423599999905	21529.0
n/a	n/a	h6	57.0	0.0	HL	39.0	36.0	40.0	36.0	R	right	0.518	21565.0
n/a	n/a	h6	57.0	1.0	HL	31.0	38.0	40.0	36.0	R	right	0.390600000024	21603.0
n/a	n/a	h6	57.0	2.0	HL	46.0	27.0	40.0	36.0	L	left	0.1675	21649.0
n/a	n/a	h6	57.0	3.0	HL	35.0	50.0	40.0	36.0	L	left	0.641399999976	21684.0
n/a	n/a	h6	57.0	4.0	HL	46.0	20.0	40.0	36.0	X	left	0.133400000095	21730.0
n/a	n/a	h6	57.0	5.0	HL	45.0	22.0	40.0	36.0	X	left	0.1065	21775.0
n/a	n/a	h6	57.0	6.0	HL	31.0	42.0	40.0	36.0	X	left	0.0847000000476	21806.0
n/a	n/a	h6	57.0	7.0	HL	40.0	31.0	40.0	36.0	X	left	0.434200000048	21846.0
n/a	n/a	h6	57.0	8.0	HL	49.0	43.0	40.0	36.0	X	left	0.417800000072	21895.0
n/a	n/a	h6	57.0	9.0	HL	26.0	21.0	40.0	36.0	X	left	0.102899999976	21921.0
n/a	n/a	h1	58.0	0.0	HL	75.0	57.0	64.0	60.0	L	left	0.391700000048	21996.0
n/a	n/a	h1	58.0	1.0	HL	68.0	75.0	64.0	60.0	R	right	0.333899999976	22071.0
n/a	n/a	h1	58.0	2.0	HL	61.0	62.0	64.0	60.0	L	left	0.252100000024	22132.0
n/a	n/a	h1	58.0	3.0	HL	44.0	57.0	64.0	60.0	R	right	0.133600000024	22189.0
n/a	n/a	h1	58.0	4.0	HL	58.0	52.0	64.0	60.0	X	left	0.100399999976	22247.0
n/a	n/a	h6	59.0	0.0	LH	19.0	65.0	30.0	60.0	R	right	0.417699999928	22312.0
n/a	n/a	h6	59.0	1.0	LH	39.0	62.0	30.0	60.0	L	left	0.223199999929	22351.0
n/a	n/a	h6	59.0	2.0	LH	24.0	45.0	30.0	60.0	L	left	0.592600000024	22375.0
n/a	n/a	h6	59.0	3.0	LH	25.0	55.0	30.0	60.0	L	left	0.251899999976	22400.0
n/a	n/a	h6	59.0	4.0	LH	40.0	55.0	30.0	60.0	X	left	0.101899999976	22440.0
n/a	n/a	h6	59.0	5.0	LH	23.0	71.0	30.0	60.0	X	left	0.1065	22463.0
n/a	n/a	h6	59.0	6.0	LH	42.0	65.0	30.0	60.0	X	left	0.0503000000715	22505.0
n/a	n/a	h6	59.0	7.0	LH	28.0	55.0	30.0	60.0	X	left	0.103600000024	22533.0
n/a	n/a	h6	59.0	8.0	LH	17.0	65.0	30.0	60.0	X	left	0.117299999952	22550.0
n/a	n/a	h6	59.0	9.0	LH	30.0	64.0	30.0	60.0	X	left	0.100900000095	22580.0
n/a	n/a	h6	60.0	0.0	LH	69.0	62.0	56.0	60.0	R	right	0.490200000048	22642.0
n/a	n/a	h6	60.0	1.0	LH	54.0	53.0	56.0	60.0	L	left	0.3675	22696.0
n/a	n/a	h6	60.0	2.0	LH	57.0	59.0	56.0	60.0	L	left	0.575	22753.0
n/a	n/a	h6	60.0	3.0	LH	62.0	60.0	56.0	60.0	L	left	0.1535	22815.0
n/a	n/a	h6	60.0	4.0	LH	57.0	51.0	56.0	60.0	X	left	0.0672000000477	22872.0
n/a	n/a	h6	60.0	5.0	LH	58.0	50.0	56.0	60.0	X	left	0.170399999976	22930.0
n/a	n/a	h6	60.0	6.0	LH	65.0	48.0	56.0	60.0	X	right	0.5255	22978.0
n/a	n/a	h6	60.0	7.0	LH	64.0	68.0	56.0	60.0	X	right	0.138299999952	23046.0
n/a	n/a	h6	60.0	8.0	LH	55.0	54.0	56.0	60.0	X	right	0.173899999976	23100.0
n/a	n/a	h6	60.0	9.0	LH	44.0	46.0	56.0	60.0	X	right	0.104600000024	23146.0
n/a	n/a	h1	61.0	0.0	HL	54.0	35.0	60.0	40.0	L	left	1.90260000002	23200.0
n/a	n/a	h1	61.0	1.0	HL	63.0	42.0	60.0	40.0	R	right	0.234200000048	23242.0
n/a	n/a	h1	61.0	2.0	HL	57.0	53.0	60.0	40.0	L	left	0.108	23299.0
n/a	n/a	h1	61.0	3.0	HL	57.0	48.0	60.0	40.0	R	right	0.134200000048	23347.0
n/a	n/a	h1	61.0	4.0	HL	58.0	50.0	60.0	40.0	X	left	0.101	23405.0
n/a	n/a	h6	62.0	0.0	HL	60.0	56.0	60.0	52.0	R	right	0.835399999976	23461.0
n/a	n/a	h6	62.0	1.0	HL	62.0	49.0	60.0	52.0	L	left	0.306300000072	23523.0
n/a	n/a	h6	62.0	2.0	HL	67.0	51.0	60.0	52.0	R	right	0.272299999952	23574.0
n/a	n/a	h6	62.0	3.0	HL	69.0	53.0	60.0	52.0	R	right	0.8175	23627.0
n/a	n/a	h6	62.0	4.0	HL	57.0	49.0	60.0	52.0	X	left	0.434299999952	23684.0
n/a	n/a	h6	62.0	5.0	HL	62.0	39.0	60.0	52.0	X	left	0.717699999929	23746.0
n/a	n/a	h6	62.0	6.0	HL	42.0	47.0	60.0	52.0	X	right	0.117399999976	23793.0
n/a	n/a	h6	62.0	7.0	HL	69.0	36.0	60.0	52.0	X	right	0.717799999952	23829.0
n/a	n/a	h6	62.0	8.0	HL	67.0	45.0	60.0	52.0	X	right	0.691099999905	23874.0
n/a	n/a	h6	62.0	9.0	HL	58.0	56.0	60.0	52.0	X	left	0.517899999976	23932.0
n/a	n/a	h6	63.0	0.0	LH	65.0	77.0	60.0	80.0	L	left	0.7175	23997.0
n/a	n/a	h6	63.0	1.0	LH	60.0	78.0	60.0	80.0	L	left	0.402200000048	24057.0
n/a	n/a	h6	63.0	2.0	LH	58.0	68.0	60.0	80.0	L	left	0.372600000024	24115.0
n/a	n/a	h6	63.0	3.0	LH	57.0	81.0	60.0	80.0	R	right	0.267799999952	24196.0
n/a	n/a	h6	63.0	4.0	LH	64.0	82.0	60.0	80.0	X	left	0.3015	24260.0
n/a	n/a	h6	63.0	5.0	LH	53.0	89.0	60.0	80.0	X	left	0.317100000024	24313.0
n/a	n/a	h6	63.0	6.0	LH	58.0	72.0	60.0	80.0	X	right	1.135	24385.0
n/a	n/a	h6	63.0	7.0	LH	56.0	73.0	60.0	80.0	X	right	0.522699999929	24458.0
n/a	n/a	h6	63.0	8.0	LH	59.0	91.0	60.0	80.0	X	right	0.671199999928	24549.0
n/a	n/a	h6	63.0	9.0	LH	48.0	67.0	60.0	80.0	X	right	0.451300000071	24616.0
n/a	n/a	h1	64.0	0.0	LH	25.0	38.0	32.0	40.0	L	left	1.4195999999	24641.0
n/a	n/a	h1	64.0	1.0	LH	44.0	57.0	32.0	40.0	L	left	0.452799999952	24685.0
n/a	n/a	h1	64.0	2.0	LH	29.0	47.0	32.0	40.0	R	right	0.568	24732.0
n/a	n/a	h1	64.0	3.0	LH	36.0	31.0	32.0	40.0	L	left	0.100800000072	24768.0
n/a	n/a	h1	64.0	4.0	LH	14.0	23.0	32.0	40.0	X	right	0.123199999929	24791.0
n/a	n/a	h6	65.0	0.0	LH	53.0	39.0	40.0	48.0	R	right	0.2175	24830.0
n/a	n/a	h6	65.0	1.0	LH	50.0	55.0	40.0	48.0	R	right	0.288700000048	24885.0
n/a	n/a	h6	65.0	2.0	LH	44.0	56.0	40.0	48.0	L	left	0.336	24929.0
n/a	n/a	h6	65.0	3.0	LH	49.0	50.0	40.0	48.0	R	right	0.107299999952	24979.0
n/a	n/a	h6	65.0	4.0	LH	37.0	38.0	40.0	48.0	X	left	0.0841000000239	25016.0
n/a	n/a	h6	65.0	5.0	LH	46.0	28.0	40.0	48.0	X	left	0.489800000071	25062.0
n/a	n/a	h6	65.0	6.0	LH	44.0	58.0	40.0	48.0	X	right	0.166699999929	25120.0
n/a	n/a	h6	65.0	7.0	LH	51.0	64.0	40.0	48.0	X	left	0.201100000024	25171.0
n/a	n/a	h6	65.0	8.0	LH	36.0	56.0	40.0	48.0	X	right	0.0752999999522	25227.0
n/a	n/a	h6	65.0	9.0	LH	47.0	42.0	40.0	48.0	X	left	0.0346000000238	25274.0
n/a	n/a	h6	66.0	0.0	HL	28.0	15.0	40.0	20.0	L	left	0.534399999976	25302.0
n/a	n/a	h6	66.0	1.0	HL	53.0	16.0	40.0	20.0	L	left	0.368	25355.0
n/a	n/a	h6	66.0	2.0	HL	34.0	28.0	40.0	20.0	L	left	0.289899999976	25389.0
n/a	n/a	h6	66.0	3.0	HL	53.0	21.0	40.0	20.0	R	right	0.401299999952	25410.0
n/a	n/a	h6	66.0	4.0	HL	40.0	24.0	40.0	20.0	X	left	0.704100000024	25450.0
n/a	n/a	h6	66.0	5.0	HL	52.0	24.0	40.0	20.0	X	left	0.3175	25502.0
n/a	n/a	h6	66.0	6.0	HL	55.0	16.0	40.0	20.0	X	left	0.334799999952	25557.0
n/a	n/a	h6	66.0	7.0	HL	24.0	24.0	40.0	20.0	X	left	0.150899999976	25581.0
n/a	n/a	h6	66.0	8.0	HL	40.0	23.0	40.0	20.0	X	left	0.0340999999046	25621.0
n/a	n/a	h6	66.0	9.0	HL	45.0	28.0	40.0	20.0	X	left	0.0835999999047	25666.0
n/a	n/a	h6	67.0	0.0	LH	60.0	79.0	60.0	72.0	R	right	0.5225	25745.0
n/a	n/a	h6	67.0	1.0	LH	57.0	66.0	60.0	72.0	R	right	0.253799999952	25811.0
n/a	n/a	h6	67.0	2.0	LH	64.0	65.0	60.0	72.0	L	left	0.483299999952	25875.0
n/a	n/a	h6	67.0	3.0	LH	63.0	69.0	60.0	72.0	R	right	0.250800000071	25944.0
n/a	n/a	h6	67.0	4.0	LH	65.0	75.0	60.0	72.0	X	left	0.1175	26009.0
n/a	n/a	h6	67.0	5.0	LH	52.0	77.0	60.0	72.0	X	right	0.0177999999523	26086.0
n/a	n/a	h6	67.0	6.0	LH	73.0	86.0	60.0	72.0	X	left	0.100599999905	26159.0
n/a	n/a	h6	67.0	7.0	LH	66.0	80.0	60.0	72.0	X	left	0.321699999928	26225.0
n/a	n/a	h6	67.0	8.0	LH	57.0	73.0	60.0	72.0	X	left	0.334900000095	26282.0
n/a	n/a	h6	67.0	9.0	LH	60.0	75.0	60.0	72.0	X	right	0.0172000000478	26357.0
n/a	n/a	h1	68.0	0.0	LH	45.0	56.0	40.0	60.0	R	right	0.417799999952	26413.0
n/a	n/a	h1	68.0	1.0	LH	29.0	52.0	40.0	60.0	R	right	0.187700000048	26465.0
n/a	n/a	h1	68.0	2.0	LH	47.0	60.0	40.0	60.0	R	right	0.389099999905	26525.0
n/a	n/a	h1	68.0	3.0	LH	36.0	57.0	40.0	60.0	L	left	0.438799999952	26561.0
n/a	n/a	h1	68.0	4.0	LH	41.0	51.0	40.0	60.0	X	right	0.125700000048	26612.0
n/a	n/a	h6	69.0	0.0	LH	25.0	48.0	20.0	40.0	L	left	0.351	26637.0
n/a	n/a	h6	69.0	1.0	LH	20.0	33.0	20.0	40.0	R	right	0.134	26670.0
n/a	n/a	h6	69.0	2.0	LH	8.0	50.0	20.0	40.0	R	right	0.284099999905	26720.0
n/a	n/a	h6	69.0	3.0	LH	14.0	48.0	20.0	40.0	L	left	0.401	26734.0
n/a	n/a	h6	69.0	4.0	LH	22.0	28.0	20.0	40.0	X	right	0.284400000095	26762.0
n/a	n/a	h6	69.0	5.0	LH	24.0	35.0	20.0	40.0	X	left	0.0672000000477	26786.0
n/a	n/a	h6	69.0	6.0	LH	22.0	40.0	20.0	40.0	X	right	0.451299999952	26826.0
n/a	n/a	h6	69.0	7.0	LH	27.0	49.0	20.0	40.0	X	left	0.451200000048	26853.0
n/a	n/a	h6	69.0	8.0	LH	31.0	37.0	20.0	40.0	X	left	0.439700000048	26884.0
n/a	n/a	h6	69.0	9.0	LH	26.0	57.0	20.0	40.0	X	right	0.4005	26941.0
n/a	n/a	h1	70.0	0.0	LH	32.0	76.0	40.0	60.0	L	left	0.401300000072	26973.0
n/a	n/a	h1	70.0	1.0	LH	37.0	65.0	40.0	60.0	R	right	0.167300000071	27038.0
n/a	n/a	h1	70.0	2.0	LH	37.0	68.0	40.0	60.0	L	left	0.0861000000239	27075.0
n/a	n/a	h1	70.0	3.0	LH	46.0	55.0	40.0	60.0	R	right	0.100600000024	27130.0
n/a	n/a	h1	70.0	4.0	LH	31.0	69.0	40.0	60.0	X	left	0.184100000024	27161.0
n/a	n/a	h1	71.0	0.0	LH	48.0	67.0	40.0	70.0	R	right	0.384	27228.0
n/a	n/a	h1	71.0	1.0	LH	31.0	62.0	40.0	70.0	L	left	0.2015	27259.0
n/a	n/a	h1	71.0	2.0	LH	39.0	65.0	40.0	70.0	R	right	0.142100000024	27324.0
n/a	n/a	h1	71.0	3.0	LH	50.0	62.0	40.0	70.0	L	left	0.151100000024	27374.0
n/a	n/a	h1	71.0	4.0	LH	47.0	64.0	40.0	70.0	X	right	0.100699999929	27438.0
n/a	n/a	h1	72.0	0.0	LH	32.0	50.0	36.0	40.0	L	left	0.59	27470.0
n/a	n/a	h1	72.0	1.0	LH	39.0	48.0	36.0	40.0	R	right	0.821900000095	27518.0
n/a	n/a	h1	72.0	2.0	LH	32.0	44.0	36.0	40.0	L	left	0.0912999999523	27550.0
n/a	n/a	h1	72.0	3.0	LH	44.0	31.0	36.0	40.0	L	left	0.701200000048	27594.0
n/a	n/a	h1	72.0	4.0	LH	27.0	33.0	36.0	40.0	X	right	0.451399999976	27627.0
n/a	n/a	h1	73.0	0.0	LH	29.0	30.0	28.0	40.0	R	right	0.368399999976	27657.0
n/a	n/a	h1	73.0	1.0	LH	27.0	39.0	28.0	40.0	L	left	0.151299999952	27684.0
n/a	n/a	h1	73.0	2.0	LH	25.0	54.0	28.0	40.0	R	right	0.150399999976	27738.0
n/a	n/a	h1	73.0	3.0	LH	31.0	44.0	28.0	40.0	L	left	0.100899999976	27769.0
n/a	n/a	h1	73.0	4.0	LH	26.0	45.0	28.0	40.0	X	right	0.117700000048	27814.0
n/a	n/a	h1	74.0	0.0	LH	46.0	75.0	48.0	60.0	R	right	0.334200000048	27889.0
n/a	n/a	h1	74.0	1.0	LH	58.0	48.0	48.0	60.0	R	right	0.649899999976	27937.0
n/a	n/a	h1	74.0	2.0	LH	51.0	58.0	48.0	60.0	L	left	0.284100000024	27988.0
n/a	n/a	h1	74.0	3.0	LH	40.0	57.0	48.0	60.0	R	right	0.174100000024	28045.0
n/a	n/a	h1	74.0	4.0	LH	29.0	51.0	48.0	60.0	X	left	0.150799999952	28074.0
n/a	n/a	h1	75.0	0.0	LH	58.0	43.0	56.0	60.0	L	left	0.468299999952	28132.0
n/a	n/a	h1	75.0	1.0	LH	33.0	67.0	56.0	60.0	R	right	0.267800000072	28199.0
n/a	n/a	h1	75.0	2.0	LH	55.0	59.0	56.0	60.0	L	left	0.134100000024	28254.0
n/a	n/a	h1	75.0	3.0	LH	42.0	64.0	56.0	60.0	R	right	0.117200000048	28318.0
n/a	n/a	h1	75.0	4.0	LH	66.0	59.0	56.0	60.0	X	left	0.136899999976	28384.0
n/a	n/a	h6	76.0	0.0	HL	55.0	61.0	60.0	52.0	R	right	0.4075	28445.0
n/a	n/a	h6	76.0	1.0	HL	60.0	43.0	60.0	52.0	L	left	0.151399999976	28505.0
n/a	n/a	h6	76.0	2.0	HL	65.0	62.0	60.0	52.0	L	left	0.585	28570.0
n/a	n/a	h6	76.0	3.0	HL	53.0	41.0	60.0	52.0	R	right	0.350799999952	28611.0
n/a	n/a	h6	76.0	4.0	HL	61.0	57.0	60.0	52.0	X	left	0.190100000024	28672.0
n/a	n/a	h6	76.0	5.0	HL	59.0	67.0	60.0	52.0	X	left	0.207800000072	28731.0
n/a	n/a	h6	76.0	6.0	HL	42.0	45.0	60.0	52.0	X	left	0.752	28773.0
n/a	n/a	h6	76.0	7.0	HL	60.0	45.0	60.0	52.0	X	left	0.874700000048	28833.0
n/a	n/a	h6	76.0	8.0	HL	64.0	53.0	60.0	52.0	X	right	0.240300000072	28886.0
n/a	n/a	h6	76.0	9.0	HL	56.0	38.0	60.0	52.0	X	left	0.959799999952	28942.0
n/a	n/a	h1	77.0	0.0	LH	52.0	73.0	52.0	60.0	L	left	0.717800000072	28994.0
n/a	n/a	h1	77.0	1.0	LH	49.0	64.0	52.0	60.0	L	left	0.504799999952	29043.0
n/a	n/a	h1	77.0	2.0	LH	65.0	58.0	52.0	60.0	R	right	0.457899999976	29101.0
n/a	n/a	h1	77.0	3.0	LH	52.0	61.0	52.0	60.0	R	right	0.473400000095	29162.0
n/a	n/a	h1	77.0	4.0	LH	57.0	64.0	52.0	60.0	X	left	1.2854000001	29219.0
n/a	n/a	h6	78.0	0.0	LH	64.0	66.0	60.0	72.0	R	right	0.568	29285.0
n/a	n/a	h6	78.0	1.0	LH	57.0	79.0	60.0	72.0	R	right	0.255200000048	29364.0
n/a	n/a	h6	78.0	2.0	LH	60.0	65.0	60.0	72.0	L	left	0.584899999976	29424.0
n/a	n/a	h6	78.0	3.0	LH	63.0	63.0	60.0	72.0	R	right	0.334599999905	29487.0
n/a	n/a	h6	78.0	4.0	LH	67.0	90.0	60.0	72.0	X	right	0.804600000024	29577.0
n/a	n/a	h6	78.0	5.0	LH	56.0	69.0	60.0	72.0	X	left	0.2875	29633.0
n/a	n/a	h6	78.0	6.0	LH	53.0	64.0	60.0	72.0	X	left	0.356700000048	29686.0
n/a	n/a	h6	78.0	7.0	LH	65.0	72.0	60.0	72.0	X	right	0.151100000024	29758.0
n/a	n/a	h6	78.0	8.0	LH	54.0	66.0	60.0	72.0	X	right	0.690899999976	29824.0
n/a	n/a	h6	78.0	9.0	LH	63.0	62.0	60.0	72.0	X	left	0.239399999976	29887.0
n/a	n/a	h1	79.0	0.0	LH	36.0	57.0	40.0	60.0	R	right	1.33539999998	29944.0
n/a	n/a	h1	79.0	1.0	LH	29.0	52.0	40.0	60.0	R	right	0.268100000024	29996.0
n/a	n/a	h1	79.0	2.0	LH	47.0	60.0	40.0	60.0	R	right	0.154400000095	30056.0
n/a	n/a	h1	79.0	3.0	LH	45.0	56.0	40.0	60.0	L	left	0.436900000095	30101.0
n/a	n/a	h1	79.0	4.0	LH	31.0	50.0	40.0	60.0	X	right	0.234100000024	30151.0
