onset	duration	trial_type	trial_number	bandit_num	mean_type	left_reward	right_reward	left_mean	right_mean	force_pos	response	response_time	points
n/a	n/a	h1	0.0	0.0	LH	40.0	64.0	40.0	52.0	L	left	2.97039999998	40.0
n/a	n/a	h1	0.0	1.0	LH	44.0	48.0	40.0	52.0	L	left	0.283700000048	84.0
n/a	n/a	h1	0.0	2.0	LH	58.0	52.0	40.0	52.0	R	right	0.268200000048	136.0
n/a	n/a	h1	0.0	3.0	LH	40.0	62.0	40.0	52.0	L	left	0.318100000024	176.0
n/a	n/a	h1	0.0	4.0	LH	52.0	40.0	40.0	52.0	X	right	0.418099999905	216.0
n/a	n/a	h6	1.0	0.0	LH	58.0	58.0	60.0	64.0	R	right	0.418	274.0
n/a	n/a	h6	1.0	1.0	LH	59.0	60.0	60.0	64.0	L	left	0.201600000024	333.0
n/a	n/a	h6	1.0	2.0	LH	61.0	64.0	60.0	64.0	R	right	0.1845	397.0
n/a	n/a	h6	1.0	3.0	LH	55.0	63.0	60.0	64.0	R	right	0.368100000024	460.0
n/a	n/a	h6	1.0	4.0	LH	69.0	69.0	60.0	64.0	X	right	0.767800000072	529.0
n/a	n/a	h6	1.0	5.0	LH	58.0	77.0	60.0	64.0	X	right	0.367600000024	606.0
n/a	n/a	h6	1.0	6.0	LH	51.0	47.0	60.0	64.0	X	right	0.3015	653.0
n/a	n/a	h6	1.0	7.0	LH	52.0	56.0	60.0	64.0	X	right	0.15	709.0
n/a	n/a	h6	1.0	8.0	LH	62.0	56.0	60.0	64.0	X	right	0.184600000024	765.0
n/a	n/a	h6	1.0	9.0	LH	61.0	72.0	60.0	64.0	X	right	0.185100000024	837.0
n/a	n/a	h1	2.0	0.0	LH	48.0	67.0	40.0	70.0	R	right	0.3515	904.0
n/a	n/a	h1	2.0	1.0	LH	47.0	62.0	40.0	70.0	L	left	0.219800000072	951.0
n/a	n/a	h1	2.0	2.0	LH	39.0	62.0	40.0	70.0	R	right	0.351899999976	1013.0
n/a	n/a	h1	2.0	3.0	LH	35.0	65.0	40.0	70.0	L	left	0.217799999952	1048.0
n/a	n/a	h1	2.0	4.0	LH	50.0	67.0	40.0	70.0	X	right	0.351699999928	1115.0
n/a	n/a	h1	3.0	0.0	LH	31.0	44.0	28.0	40.0	R	right	0.294199999928	1159.0
n/a	n/a	h1	3.0	1.0	LH	27.0	54.0	28.0	40.0	L	left	0.217699999928	1186.0
n/a	n/a	h1	3.0	2.0	LH	25.0	39.0	28.0	40.0	R	right	0.184799999952	1225.0
n/a	n/a	h1	3.0	3.0	LH	29.0	30.0	28.0	40.0	L	left	0.268399999976	1254.0
n/a	n/a	h1	3.0	4.0	LH	29.0	47.0	28.0	40.0	X	right	0.401300000072	1301.0
n/a	n/a	h1	4.0	0.0	HL	67.0	22.0	60.0	30.0	R	right	0.401	1323.0
n/a	n/a	h1	4.0	1.0	HL	55.0	38.0	60.0	30.0	R	right	0.351299999952	1361.0
n/a	n/a	h1	4.0	2.0	HL	83.0	34.0	60.0	30.0	R	right	0.335	1395.0
n/a	n/a	h1	4.0	3.0	HL	67.0	27.0	60.0	30.0	L	left	0.384899999976	1462.0
n/a	n/a	h1	4.0	4.0	HL	64.0	30.0	60.0	30.0	X	right	0.2345	1492.0
n/a	n/a	h1	5.0	0.0	HL	75.0	55.0	72.0	60.0	L	left	0.367699999928	1567.0
n/a	n/a	h1	5.0	1.0	HL	62.0	75.0	72.0	60.0	R	right	0.169100000024	1642.0
n/a	n/a	h1	5.0	2.0	HL	69.0	58.0	72.0	60.0	L	left	0.193	1711.0
n/a	n/a	h1	5.0	3.0	HL	69.0	50.0	72.0	60.0	R	right	0.311799999952	1761.0
n/a	n/a	h1	5.0	4.0	HL	81.0	50.0	72.0	60.0	X	left	0.384700000048	1842.0
n/a	n/a	h1	6.0	0.0	HL	62.0	66.0	68.0	60.0	R	right	0.453	1908.0
n/a	n/a	h1	6.0	1.0	HL	76.0	44.0	68.0	60.0	L	left	0.153100000024	1984.0
n/a	n/a	h1	6.0	2.0	HL	60.0	51.0	68.0	60.0	L	left	0.301399999976	2044.0
n/a	n/a	h1	6.0	3.0	HL	57.0	54.0	68.0	60.0	R	right	0.234600000024	2098.0
n/a	n/a	h1	6.0	4.0	HL	63.0	47.0	68.0	60.0	X	left	0.717799999952	2161.0
n/a	n/a	h1	7.0	0.0	HL	39.0	32.0	44.0	40.0	L	left	0.358399999976	2200.0
n/a	n/a	h1	7.0	1.0	HL	49.0	52.0	44.0	40.0	L	left	0.290099999905	2249.0
n/a	n/a	h1	7.0	2.0	HL	39.0	32.0	44.0	40.0	L	left	0.304599999905	2288.0
n/a	n/a	h1	7.0	3.0	HL	36.0	47.0	44.0	40.0	R	right	0.270099999905	2335.0
n/a	n/a	h1	7.0	4.0	HL	39.0	37.0	44.0	40.0	X	right	0.351700000048	2372.0
n/a	n/a	h6	8.0	0.0	HL	96.0	65.0	90.0	60.0	L	left	0.284899999976	2468.0
n/a	n/a	h6	8.0	1.0	HL	88.0	57.0	90.0	60.0	L	left	0.334399999976	2556.0
n/a	n/a	h6	8.0	2.0	HL	84.0	59.0	90.0	60.0	R	right	0.268	2615.0
n/a	n/a	h6	8.0	3.0	HL	76.0	67.0	90.0	60.0	R	right	0.233299999952	2682.0
n/a	n/a	h6	8.0	4.0	HL	99.0	71.0	90.0	60.0	X	right	0.743899999976	2753.0
n/a	n/a	h6	8.0	5.0	HL	92.0	41.0	90.0	60.0	X	left	0.354800000072	2845.0
n/a	n/a	h6	8.0	6.0	HL	81.0	65.0	90.0	60.0	X	left	0.222099999905	2926.0
n/a	n/a	h6	8.0	7.0	HL	95.0	52.0	90.0	60.0	X	left	0.150299999952	3021.0
n/a	n/a	h6	8.0	8.0	HL	90.0	70.0	90.0	60.0	X	left	0.0848999999762	3111.0
n/a	n/a	h6	8.0	9.0	HL	99.0	56.0	90.0	60.0	X	left	0.0891000000238	3210.0
n/a	n/a	h6	9.0	0.0	HL	39.0	36.0	40.0	36.0	R	right	0.371199999928	3246.0
n/a	n/a	h6	9.0	1.0	HL	31.0	21.0	40.0	36.0	R	right	0.302899999976	3267.0
n/a	n/a	h6	9.0	2.0	HL	46.0	27.0	40.0	36.0	L	left	0.2685	3313.0
n/a	n/a	h6	9.0	3.0	HL	26.0	50.0	40.0	36.0	L	left	0.3345	3339.0
n/a	n/a	h6	9.0	4.0	HL	41.0	28.0	40.0	36.0	X	left	1.82030000007	3380.0
n/a	n/a	h6	9.0	5.0	HL	35.0	37.0	40.0	36.0	X	left	0.334900000095	3415.0
n/a	n/a	h6	9.0	6.0	HL	36.0	38.0	40.0	36.0	X	left	0.707100000024	3451.0
n/a	n/a	h6	9.0	7.0	HL	46.0	22.0	40.0	36.0	X	left	0.256899999976	3497.0
n/a	n/a	h6	9.0	8.0	HL	35.0	32.0	40.0	36.0	X	left	0.257699999928	3532.0
n/a	n/a	h6	9.0	9.0	HL	37.0	30.0	40.0	36.0	X	left	0.184099999905	3569.0
n/a	n/a	h1	10.0	0.0	HL	70.0	46.0	60.0	40.0	R	right	0.389799999952	3615.0
n/a	n/a	h1	10.0	1.0	HL	54.0	36.0	60.0	40.0	R	right	0.311600000024	3651.0
n/a	n/a	h1	10.0	2.0	HL	46.0	26.0	60.0	40.0	R	right	0.301600000024	3677.0
n/a	n/a	h1	10.0	3.0	HL	68.0	32.0	60.0	40.0	L	left	0.351299999952	3745.0
n/a	n/a	h1	10.0	4.0	HL	61.0	46.0	60.0	40.0	X	left	0.551699999928	3806.0
n/a	n/a	h1	11.0	0.0	HL	30.0	11.0	40.0	10.0	R	right	0.351100000024	3817.0
n/a	n/a	h1	11.0	1.0	HL	39.0	7.0	40.0	10.0	L	left	0.235200000048	3856.0
n/a	n/a	h1	11.0	2.0	HL	45.0	1.0	40.0	10.0	R	right	0.367800000072	3857.0
n/a	n/a	h1	11.0	3.0	HL	34.0	9.0	40.0	10.0	L	left	0.384600000024	3891.0
n/a	n/a	h1	11.0	4.0	HL	33.0	19.0	40.0	10.0	X	left	0.300599999905	3924.0
n/a	n/a	h6	12.0	0.0	LH	27.0	80.0	30.0	60.0	R	right	0.334600000024	4004.0
n/a	n/a	h6	12.0	1.0	LH	40.0	61.0	30.0	60.0	R	right	0.334400000095	4065.0
n/a	n/a	h6	12.0	2.0	LH	20.0	58.0	30.0	60.0	L	left	0.301200000048	4085.0
n/a	n/a	h6	12.0	3.0	LH	25.0	65.0	30.0	60.0	L	left	0.484700000048	4110.0
n/a	n/a	h6	12.0	4.0	LH	34.0	60.0	30.0	60.0	X	right	0.417799999952	4170.0
n/a	n/a	h6	12.0	5.0	LH	33.0	53.0	30.0	60.0	X	right	0.267299999952	4223.0
n/a	n/a	h6	12.0	6.0	LH	33.0	73.0	30.0	60.0	X	right	0.201199999928	4296.0
n/a	n/a	h6	12.0	7.0	LH	18.0	45.0	30.0	60.0	X	right	0.217699999928	4341.0
n/a	n/a	h6	12.0	8.0	LH	37.0	68.0	30.0	60.0	X	right	0.184399999976	4409.0
n/a	n/a	h6	12.0	9.0	LH	33.0	60.0	30.0	60.0	X	left	0.201299999952	4442.0
n/a	n/a	h6	13.0	0.0	LH	58.0	58.0	60.0	64.0	R	right	0.269399999976	4500.0
n/a	n/a	h6	13.0	1.0	LH	59.0	60.0	60.0	64.0	L	left	0.188600000024	4559.0
n/a	n/a	h6	13.0	2.0	LH	61.0	64.0	60.0	64.0	R	right	0.2715	4623.0
n/a	n/a	h6	13.0	3.0	LH	55.0	61.0	60.0	64.0	R	right	0.351199999928	4684.0
n/a	n/a	h6	13.0	4.0	LH	73.0	70.0	60.0	64.0	X	right	1.2420999999	4754.0
n/a	n/a	h6	13.0	5.0	LH	69.0	59.0	60.0	64.0	X	right	0.202	4813.0
n/a	n/a	h6	13.0	6.0	LH	58.0	75.0	60.0	64.0	X	right	0.100700000048	4888.0
n/a	n/a	h6	13.0	7.0	LH	61.0	68.0	60.0	64.0	X	right	0.1215	4956.0
n/a	n/a	h6	13.0	8.0	LH	58.0	56.0	60.0	64.0	X	right	0.134400000095	5012.0
n/a	n/a	h6	13.0	9.0	LH	62.0	79.0	60.0	64.0	X	right	0.151299999952	5091.0
n/a	n/a	h6	14.0	0.0	LH	44.0	39.0	40.0	48.0	R	right	0.334700000048	5130.0
n/a	n/a	h6	14.0	1.0	LH	50.0	55.0	40.0	48.0	R	right	0.250899999976	5185.0
n/a	n/a	h6	14.0	2.0	LH	53.0	56.0	40.0	48.0	L	left	0.3745	5238.0
n/a	n/a	h6	14.0	3.0	LH	49.0	58.0	40.0	48.0	R	right	0.274100000024	5296.0
n/a	n/a	h6	14.0	4.0	LH	40.0	44.0	40.0	48.0	X	right	0.720399999976	5340.0
n/a	n/a	h6	14.0	5.0	LH	43.0	57.0	40.0	48.0	X	right	0.2695	5397.0
n/a	n/a	h6	14.0	6.0	LH	39.0	43.0	40.0	48.0	X	right	0.317299999952	5440.0
n/a	n/a	h6	14.0	7.0	LH	43.0	56.0	40.0	48.0	X	right	0.186	5496.0
n/a	n/a	h6	14.0	8.0	LH	23.0	56.0	40.0	48.0	X	left	0.189399999976	5519.0
n/a	n/a	h6	14.0	9.0	LH	42.0	49.0	40.0	48.0	X	right	0.469799999952	5568.0
n/a	n/a	h1	15.0	0.0	HL	65.0	59.0	68.0	60.0	L	left	0.285200000048	5633.0
n/a	n/a	h1	15.0	1.0	HL	57.0	61.0	68.0	60.0	R	right	0.169899999976	5694.0
n/a	n/a	h1	15.0	2.0	HL	54.0	48.0	68.0	60.0	L	left	0.170899999976	5748.0
n/a	n/a	h1	15.0	3.0	HL	70.0	58.0	68.0	60.0	L	left	0.573599999905	5818.0
n/a	n/a	h1	15.0	4.0	HL	69.0	51.0	68.0	60.0	X	left	0.852200000048	5887.0
n/a	n/a	h6	16.0	0.0	LH	72.0	71.0	60.0	64.0	L	left	0.301399999976	5959.0
n/a	n/a	h6	16.0	1.0	LH	65.0	87.0	60.0	64.0	L	left	0.334299999952	6024.0
n/a	n/a	h6	16.0	2.0	LH	61.0	70.0	60.0	64.0	R	right	0.324899999976	6094.0
n/a	n/a	h6	16.0	3.0	LH	61.0	76.0	60.0	64.0	R	right	0.306299999952	6170.0
n/a	n/a	h6	16.0	4.0	LH	71.0	66.0	60.0	64.0	X	right	0.918699999928	6236.0
n/a	n/a	h6	16.0	5.0	LH	49.0	59.0	60.0	64.0	X	right	0.268	6295.0
n/a	n/a	h6	16.0	6.0	LH	65.0	50.0	60.0	64.0	X	right	0.276399999976	6345.0
n/a	n/a	h6	16.0	7.0	LH	56.0	76.0	60.0	64.0	X	left	0.616600000024	6401.0
n/a	n/a	h6	16.0	8.0	LH	58.0	59.0	60.0	64.0	X	left	0.435600000024	6459.0
n/a	n/a	h6	16.0	9.0	LH	71.0	64.0	60.0	64.0	X	left	0.2685	6530.0
n/a	n/a	h6	17.0	0.0	LH	43.0	58.0	40.0	52.0	L	left	0.318399999976	6573.0
n/a	n/a	h6	17.0	1.0	LH	32.0	39.0	40.0	52.0	R	right	0.1875	6612.0
n/a	n/a	h6	17.0	2.0	LH	45.0	53.0	40.0	52.0	L	left	0.173799999952	6657.0
n/a	n/a	h6	17.0	3.0	LH	62.0	60.0	40.0	52.0	R	right	0.225200000048	6717.0
n/a	n/a	h6	17.0	4.0	LH	32.0	54.0	40.0	52.0	X	right	1.00079999995	6771.0
n/a	n/a	h6	17.0	5.0	LH	52.0	51.0	40.0	52.0	X	right	0.217899999976	6822.0
n/a	n/a	h6	17.0	6.0	LH	46.0	54.0	40.0	52.0	X	left	0.550700000048	6868.0
n/a	n/a	h6	17.0	7.0	LH	55.0	58.0	40.0	52.0	X	right	0.423599999905	6926.0
n/a	n/a	h6	17.0	8.0	LH	47.0	61.0	40.0	52.0	X	right	0.240199999928	6987.0
n/a	n/a	h6	17.0	9.0	LH	48.0	45.0	40.0	52.0	X	right	0.466600000024	7032.0
n/a	n/a	h6	18.0	0.0	HL	28.0	15.0	40.0	20.0	L	left	0.267299999952	7060.0
n/a	n/a	h6	18.0	1.0	HL	53.0	16.0	40.0	20.0	L	left	0.4175	7113.0
n/a	n/a	h6	18.0	2.0	HL	55.0	28.0	40.0	20.0	L	left	0.2755	7168.0
n/a	n/a	h6	18.0	3.0	HL	53.0	20.0	40.0	20.0	R	right	0.338799999952	7188.0
n/a	n/a	h6	18.0	4.0	HL	53.0	3.0	40.0	20.0	X	left	0.517700000048	7241.0
n/a	n/a	h6	18.0	5.0	HL	40.0	15.0	40.0	20.0	X	left	0.339799999952	7281.0
n/a	n/a	h6	18.0	6.0	HL	45.0	4.0	40.0	20.0	X	left	0.224799999952	7326.0
n/a	n/a	h6	18.0	7.0	HL	41.0	28.0	40.0	20.0	X	left	0.273	7367.0
n/a	n/a	h6	18.0	8.0	HL	43.0	25.0	40.0	20.0	X	left	0.149200000048	7410.0
n/a	n/a	h6	18.0	9.0	HL	47.0	26.0	40.0	20.0	X	right	0.616700000048	7436.0
n/a	n/a	h1	19.0	0.0	LH	66.0	43.0	56.0	60.0	L	left	0.232599999905	7502.0
n/a	n/a	h1	19.0	1.0	LH	33.0	67.0	56.0	60.0	R	right	0.1195	7569.0
n/a	n/a	h1	19.0	2.0	LH	42.0	59.0	56.0	60.0	L	left	0.172399999976	7611.0
n/a	n/a	h1	19.0	3.0	LH	55.0	64.0	56.0	60.0	R	right	0.239	7675.0
n/a	n/a	h1	19.0	4.0	LH	47.0	58.0	56.0	60.0	X	left	0.207899999976	7722.0
n/a	n/a	h1	20.0	0.0	LH	25.0	23.0	32.0	40.0	L	left	0.291	7747.0
n/a	n/a	h1	20.0	1.0	LH	29.0	57.0	32.0	40.0	L	left	0.369799999952	7776.0
n/a	n/a	h1	20.0	2.0	LH	44.0	38.0	32.0	40.0	R	right	0.300799999952	7814.0
n/a	n/a	h1	20.0	3.0	LH	36.0	31.0	32.0	40.0	L	left	0.252100000024	7850.0
n/a	n/a	h1	20.0	4.0	LH	39.0	48.0	32.0	40.0	X	right	0.652	7898.0
n/a	n/a	h6	21.0	0.0	HL	43.0	35.0	40.0	28.0	R	right	0.367700000048	7933.0
n/a	n/a	h6	21.0	1.0	HL	31.0	21.0	40.0	28.0	R	right	0.309700000048	7954.0
n/a	n/a	h6	21.0	2.0	HL	40.0	28.0	40.0	28.0	R	right	0.3235	7982.0
n/a	n/a	h6	21.0	3.0	HL	36.0	23.0	40.0	28.0	L	left	0.2715	8018.0
n/a	n/a	h6	21.0	4.0	HL	40.0	27.0	40.0	28.0	X	right	0.254899999976	8045.0
n/a	n/a	h6	21.0	5.0	HL	46.0	20.0	40.0	28.0	X	left	1.32510000002	8091.0
n/a	n/a	h6	21.0	6.0	HL	50.0	21.0	40.0	28.0	X	left	0.3855	8141.0
n/a	n/a	h6	21.0	7.0	HL	41.0	37.0	40.0	28.0	X	left	0.154600000024	8182.0
n/a	n/a	h6	21.0	8.0	HL	44.0	19.0	40.0	28.0	X	left	0.0663999999762	8226.0
n/a	n/a	h6	21.0	9.0	HL	37.0	25.0	40.0	28.0	X	left	0.0711000000238	8263.0
n/a	n/a	h1	22.0	0.0	LH	32.0	76.0	40.0	60.0	L	left	0.274600000024	8295.0
n/a	n/a	h1	22.0	1.0	LH	37.0	65.0	40.0	60.0	R	right	0.101200000048	8360.0
n/a	n/a	h1	22.0	2.0	LH	46.0	68.0	40.0	60.0	L	left	0.117800000072	8406.0
n/a	n/a	h1	22.0	3.0	LH	37.0	69.0	40.0	60.0	R	right	0.168799999952	8475.0
n/a	n/a	h1	22.0	4.0	LH	40.0	53.0	40.0	60.0	X	right	0.618200000048	8528.0
n/a	n/a	h6	23.0	0.0	HL	49.0	36.0	60.0	40.0	L	left	0.312600000024	8577.0
n/a	n/a	h6	23.0	1.0	HL	68.0	43.0	60.0	40.0	R	right	0.134699999928	8620.0
n/a	n/a	h6	23.0	2.0	HL	55.0	40.0	60.0	40.0	L	left	0.151100000024	8675.0
n/a	n/a	h6	23.0	3.0	HL	67.0	41.0	60.0	40.0	R	right	0.219899999976	8716.0
n/a	n/a	h6	23.0	4.0	HL	49.0	34.0	60.0	40.0	X	left	1.23510000002	8765.0
n/a	n/a	h6	23.0	5.0	HL	57.0	35.0	60.0	40.0	X	left	0.701800000072	8822.0
n/a	n/a	h6	23.0	6.0	HL	55.0	50.0	60.0	40.0	X	left	0.120399999976	8877.0
n/a	n/a	h6	23.0	7.0	HL	54.0	28.0	60.0	40.0	X	left	0.124699999928	8931.0
n/a	n/a	h6	23.0	8.0	HL	66.0	35.0	60.0	40.0	X	left	0.151300000072	8997.0
n/a	n/a	h6	23.0	9.0	HL	54.0	40.0	60.0	40.0	X	left	0.101300000072	9051.0
n/a	n/a	h6	24.0	0.0	LH	40.0	38.0	40.0	48.0	L	left	0.3285	9091.0
n/a	n/a	h6	24.0	1.0	LH	37.0	44.0	40.0	48.0	L	left	0.460100000024	9128.0
n/a	n/a	h6	24.0	2.0	LH	60.0	44.0	40.0	48.0	R	right	0.242399999976	9172.0
n/a	n/a	h6	24.0	3.0	LH	42.0	52.0	40.0	48.0	R	right	0.3705	9224.0
n/a	n/a	h6	24.0	4.0	LH	52.0	55.0	40.0	48.0	X	left	0.367800000072	9276.0
n/a	n/a	h6	24.0	5.0	LH	46.0	51.0	40.0	48.0	X	left	0.359600000024	9322.0
n/a	n/a	h6	24.0	6.0	LH	50.0	51.0	40.0	48.0	X	left	0.768199999928	9372.0
n/a	n/a	h6	24.0	7.0	LH	47.0	34.0	40.0	48.0	X	left	0.334600000024	9419.0
n/a	n/a	h6	24.0	8.0	LH	30.0	49.0	40.0	48.0	X	left	0.284099999905	9449.0
n/a	n/a	h6	24.0	9.0	LH	29.0	53.0	40.0	48.0	X	left	0.200199999928	9478.0
n/a	n/a	h6	25.0	0.0	LH	25.0	48.0	20.0	40.0	L	left	0.417600000024	9503.0
n/a	n/a	h6	25.0	1.0	LH	20.0	48.0	20.0	40.0	R	right	0.151299999952	9551.0
n/a	n/a	h6	25.0	2.0	LH	8.0	28.0	20.0	40.0	R	right	0.4235	9579.0
n/a	n/a	h6	25.0	3.0	LH	22.0	33.0	20.0	40.0	L	left	0.207800000072	9601.0
n/a	n/a	h6	25.0	4.0	LH	29.0	28.0	20.0	40.0	X	right	1.13510000002	9629.0
n/a	n/a	h6	25.0	5.0	LH	16.0	39.0	20.0	40.0	X	right	0.156299999952	9668.0
n/a	n/a	h6	25.0	6.0	LH	41.0	51.0	20.0	40.0	X	left	0.400600000024	9709.0
n/a	n/a	h6	25.0	7.0	LH	22.0	35.0	20.0	40.0	X	left	0.301099999905	9731.0
n/a	n/a	h6	25.0	8.0	LH	30.0	50.0	20.0	40.0	X	left	0.203099999905	9761.0
n/a	n/a	h6	25.0	9.0	LH	14.0	34.0	20.0	40.0	X	right	0.376	9795.0
n/a	n/a	h6	26.0	0.0	LH	69.0	60.0	56.0	60.0	R	right	0.405700000048	9855.0
n/a	n/a	h6	26.0	1.0	LH	55.0	53.0	56.0	60.0	L	left	0.158600000024	9910.0
n/a	n/a	h6	26.0	2.0	LH	57.0	59.0	56.0	60.0	L	left	0.368100000024	9967.0
n/a	n/a	h6	26.0	3.0	LH	62.0	46.0	56.0	60.0	L	left	0.3005	10029.0
n/a	n/a	h6	26.0	4.0	LH	50.0	63.0	56.0	60.0	X	left	0.684899999976	10079.0
n/a	n/a	h6	26.0	5.0	LH	65.0	68.0	56.0	60.0	X	left	0.375600000024	10144.0
n/a	n/a	h6	26.0	6.0	LH	59.0	64.0	56.0	60.0	X	right	0.274300000072	10208.0
n/a	n/a	h6	26.0	7.0	LH	46.0	52.0	56.0	60.0	X	right	0.367799999952	10260.0
n/a	n/a	h6	26.0	8.0	LH	68.0	58.0	56.0	60.0	X	right	0.301	10318.0
n/a	n/a	h6	26.0	9.0	LH	62.0	62.0	56.0	60.0	X	right	0.1695	10380.0
n/a	n/a	h1	27.0	0.0	HL	57.0	35.0	60.0	40.0	L	left	0.334700000048	10437.0
n/a	n/a	h1	27.0	1.0	HL	63.0	50.0	60.0	40.0	R	right	0.184600000024	10487.0
n/a	n/a	h1	27.0	2.0	HL	57.0	53.0	60.0	40.0	L	left	0.204099999905	10544.0
n/a	n/a	h1	27.0	3.0	HL	54.0	48.0	60.0	40.0	R	right	0.317899999976	10592.0
n/a	n/a	h1	27.0	4.0	HL	62.0	36.0	60.0	40.0	X	left	1.05120000005	10654.0
n/a	n/a	h6	28.0	0.0	HL	43.0	26.0	40.0	28.0	R	right	0.384899999976	10680.0
n/a	n/a	h6	28.0	1.0	HL	31.0	21.0	40.0	28.0	R	right	0.340100000024	10701.0
n/a	n/a	h6	28.0	2.0	HL	36.0	25.0	40.0	28.0	R	right	0.303799999952	10726.0
n/a	n/a	h6	28.0	3.0	HL	40.0	23.0	40.0	28.0	L	left	0.221100000024	10766.0
n/a	n/a	h6	28.0	4.0	HL	40.0	18.0	40.0	28.0	X	left	0.573600000024	10806.0
n/a	n/a	h6	28.0	5.0	HL	42.0	29.0	40.0	28.0	X	left	0.335600000024	10848.0
n/a	n/a	h6	28.0	6.0	HL	38.0	28.0	40.0	28.0	X	left	0.139700000048	10886.0
n/a	n/a	h6	28.0	7.0	HL	43.0	28.0	40.0	28.0	X	left	0.1505	10929.0
n/a	n/a	h6	28.0	8.0	HL	43.0	29.0	40.0	28.0	X	left	0.151	10972.0
n/a	n/a	h6	28.0	9.0	HL	45.0	35.0	40.0	28.0	X	left	0.135299999952	11017.0
n/a	n/a	h6	29.0	0.0	LH	22.0	58.0	40.0	52.0	L	left	0.366699999928	11039.0
n/a	n/a	h6	29.0	1.0	LH	32.0	51.0	40.0	52.0	R	right	0.0732999999523	11090.0
n/a	n/a	h6	29.0	2.0	LH	62.0	53.0	40.0	52.0	L	left	0.167799999952	11152.0
n/a	n/a	h6	29.0	3.0	LH	52.0	54.0	40.0	52.0	R	right	0.1675	11206.0
n/a	n/a	h6	29.0	4.0	LH	37.0	56.0	40.0	52.0	X	left	0.251799999952	11243.0
n/a	n/a	h6	29.0	5.0	LH	45.0	43.0	40.0	52.0	X	right	0.234100000024	11286.0
n/a	n/a	h6	29.0	6.0	LH	55.0	51.0	40.0	52.0	X	left	0.356899999976	11341.0
n/a	n/a	h6	29.0	7.0	LH	45.0	42.0	40.0	52.0	X	right	0.287899999976	11383.0
n/a	n/a	h6	29.0	8.0	LH	49.0	39.0	40.0	52.0	X	left	0.184300000072	11432.0
n/a	n/a	h6	29.0	9.0	LH	34.0	68.0	40.0	52.0	X	right	0.205899999976	11500.0
n/a	n/a	h1	30.0	0.0	LH	43.0	75.0	40.0	70.0	R	right	0.601600000024	11575.0
n/a	n/a	h1	30.0	1.0	LH	30.0	80.0	40.0	70.0	R	right	0.636300000072	11655.0
n/a	n/a	h1	30.0	2.0	LH	40.0	70.0	40.0	70.0	R	right	0.2915	11725.0
n/a	n/a	h1	30.0	3.0	LH	22.0	65.0	40.0	70.0	L	left	0.768800000072	11747.0
n/a	n/a	h1	30.0	4.0	LH	40.0	78.0	40.0	70.0	X	right	0.234200000048	11825.0
n/a	n/a	h1	31.0	0.0	HL	60.0	66.0	68.0	60.0	R	right	0.382399999976	11891.0
n/a	n/a	h1	31.0	1.0	HL	62.0	54.0	68.0	60.0	L	left	0.217899999976	11953.0
n/a	n/a	h1	31.0	2.0	HL	76.0	51.0	68.0	60.0	L	left	0.501600000024	12029.0
n/a	n/a	h1	31.0	3.0	HL	57.0	60.0	68.0	60.0	R	right	0.281299999952	12089.0
n/a	n/a	h1	31.0	4.0	HL	64.0	44.0	68.0	60.0	X	left	0.5675	12153.0
n/a	n/a	h1	32.0	0.0	HL	30.0	7.0	40.0	10.0	R	right	0.368100000024	12160.0
n/a	n/a	h1	32.0	1.0	HL	39.0	11.0	40.0	10.0	L	left	0.212700000048	12199.0
n/a	n/a	h1	32.0	2.0	HL	45.0	1.0	40.0	10.0	R	right	0.267700000048	12200.0
n/a	n/a	h1	32.0	3.0	HL	46.0	17.0	40.0	10.0	L	left	0.283700000048	12246.0
n/a	n/a	h1	32.0	4.0	HL	34.0	9.0	40.0	10.0	X	left	0.2845	12280.0
n/a	n/a	h6	33.0	0.0	HL	49.0	41.0	60.0	40.0	L	left	0.418100000024	12329.0
n/a	n/a	h6	33.0	1.0	HL	68.0	43.0	60.0	40.0	R	right	0.174700000048	12372.0
n/a	n/a	h6	33.0	2.0	HL	67.0	40.0	60.0	40.0	L	left	0.209600000024	12439.0
n/a	n/a	h6	33.0	3.0	HL	55.0	36.0	60.0	40.0	R	right	0.217799999952	12475.0
n/a	n/a	h6	33.0	4.0	HL	59.0	49.0	60.0	40.0	X	left	0.551200000048	12534.0
n/a	n/a	h6	33.0	5.0	HL	60.0	28.0	60.0	40.0	X	left	0.342300000071	12594.0
n/a	n/a	h6	33.0	6.0	HL	50.0	48.0	60.0	40.0	X	left	0.151199999929	12644.0
n/a	n/a	h6	33.0	7.0	HL	64.0	50.0	60.0	40.0	X	left	0.135200000048	12708.0
n/a	n/a	h6	33.0	8.0	HL	57.0	31.0	60.0	40.0	X	left	0.151100000024	12765.0
n/a	n/a	h6	33.0	9.0	HL	54.0	45.0	60.0	40.0	X	left	0.156900000095	12819.0
n/a	n/a	h6	34.0	0.0	LH	62.0	77.0	60.0	80.0	L	left	0.242400000095	12881.0
n/a	n/a	h6	34.0	1.0	LH	60.0	67.0	60.0	80.0	L	left	0.535299999952	12941.0
n/a	n/a	h6	34.0	2.0	LH	58.0	68.0	60.0	80.0	L	left	0.251100000024	12999.0
n/a	n/a	h6	34.0	3.0	LH	57.0	78.0	60.0	80.0	R	right	0.307800000071	13077.0
n/a	n/a	h6	34.0	4.0	LH	66.0	90.0	60.0	80.0	X	right	0.902	13167.0
n/a	n/a	h6	34.0	5.0	LH	81.0	75.0	60.0	80.0	X	right	0.341900000095	13242.0
n/a	n/a	h6	34.0	6.0	LH	67.0	84.0	60.0	80.0	X	right	0.146700000048	13326.0
n/a	n/a	h6	34.0	7.0	LH	53.0	68.0	60.0	80.0	X	right	0.0851000000238	13394.0
n/a	n/a	h6	34.0	8.0	LH	72.0	88.0	60.0	80.0	X	right	0.0667999999523	13482.0
n/a	n/a	h6	34.0	9.0	LH	58.0	63.0	60.0	80.0	X	right	0.0848000000715	13545.0
n/a	n/a	h6	35.0	0.0	LH	27.0	48.0	30.0	60.0	R	right	0.284199999928	13593.0
n/a	n/a	h6	35.0	1.0	LH	40.0	61.0	30.0	60.0	R	right	0.334200000048	13654.0
n/a	n/a	h6	35.0	2.0	LH	20.0	58.0	30.0	60.0	L	left	0.284900000095	13674.0
n/a	n/a	h6	35.0	3.0	LH	38.0	65.0	30.0	60.0	L	left	0.321699999928	13712.0
n/a	n/a	h6	35.0	4.0	LH	30.0	62.0	30.0	60.0	X	right	0.452300000072	13774.0
n/a	n/a	h6	35.0	5.0	LH	25.0	58.0	30.0	60.0	X	right	0.292799999952	13832.0
n/a	n/a	h6	35.0	6.0	LH	32.0	69.0	30.0	60.0	X	right	0.151600000024	13901.0
n/a	n/a	h6	35.0	7.0	LH	38.0	65.0	30.0	60.0	X	right	0.134399999976	13966.0
n/a	n/a	h6	35.0	8.0	LH	40.0	80.0	30.0	60.0	X	right	0.124	14046.0
n/a	n/a	h6	35.0	9.0	LH	18.0	68.0	30.0	60.0	X	right	0.117799999952	14114.0
n/a	n/a	h1	36.0	0.0	HL	70.0	37.0	60.0	40.0	R	right	0.3765	14151.0
n/a	n/a	h1	36.0	1.0	HL	68.0	36.0	60.0	40.0	R	right	0.321	14187.0
n/a	n/a	h1	36.0	2.0	HL	46.0	26.0	60.0	40.0	R	right	0.301899999976	14213.0
n/a	n/a	h1	36.0	3.0	HL	54.0	32.0	60.0	40.0	L	left	0.317899999976	14267.0
n/a	n/a	h1	36.0	4.0	HL	54.0	46.0	60.0	40.0	X	left	0.374200000048	14321.0
n/a	n/a	h1	37.0	0.0	LH	51.0	75.0	48.0	60.0	R	right	0.451299999952	14396.0
n/a	n/a	h1	37.0	1.0	LH	58.0	57.0	48.0	60.0	R	right	0.330699999928	14453.0
n/a	n/a	h1	37.0	2.0	LH	46.0	58.0	48.0	60.0	L	left	0.251200000048	14499.0
n/a	n/a	h1	37.0	3.0	LH	40.0	48.0	48.0	60.0	R	right	0.317900000095	14547.0
n/a	n/a	h1	37.0	4.0	LH	42.0	54.0	48.0	60.0	X	right	0.200900000095	14601.0
n/a	n/a	h6	38.0	0.0	HL	77.0	45.0	70.0	40.0	L	left	0.423700000048	14678.0
n/a	n/a	h6	38.0	1.0	HL	68.0	29.0	70.0	40.0	L	left	0.254699999928	14746.0
n/a	n/a	h6	38.0	2.0	HL	71.0	27.0	70.0	40.0	L	left	0.237900000095	14817.0
n/a	n/a	h6	38.0	3.0	HL	82.0	35.0	70.0	40.0	R	right	0.366800000072	14852.0
n/a	n/a	h6	38.0	4.0	HL	64.0	43.0	70.0	40.0	X	left	0.839700000048	14916.0
n/a	n/a	h6	38.0	5.0	HL	56.0	43.0	70.0	40.0	X	left	0.223100000024	14972.0
n/a	n/a	h6	38.0	6.0	HL	73.0	47.0	70.0	40.0	X	left	0.086	15045.0
n/a	n/a	h6	38.0	7.0	HL	80.0	40.0	70.0	40.0	X	left	0.0701999999285	15125.0
n/a	n/a	h6	38.0	8.0	HL	71.0	44.0	70.0	40.0	X	left	0.0506000000238	15196.0
n/a	n/a	h6	38.0	9.0	HL	83.0	48.0	70.0	40.0	X	left	0.1165	15279.0
n/a	n/a	h1	39.0	0.0	HL	39.0	32.0	44.0	40.0	L	left	0.303299999952	15318.0
n/a	n/a	h1	39.0	1.0	HL	36.0	52.0	44.0	40.0	L	left	0.268	15354.0
n/a	n/a	h1	39.0	2.0	HL	39.0	47.0	44.0	40.0	L	left	0.267799999952	15393.0
n/a	n/a	h1	39.0	3.0	HL	49.0	32.0	44.0	40.0	R	right	0.268100000024	15425.0
n/a	n/a	h1	39.0	4.0	HL	55.0	46.0	44.0	40.0	X	right	0.583899999976	15471.0
n/a	n/a	h6	40.0	0.0	HL	36.0	38.0	40.0	28.0	L	left	0.2655	15507.0
n/a	n/a	h6	40.0	1.0	HL	37.0	40.0	40.0	28.0	L	left	0.350899999976	15544.0
n/a	n/a	h6	40.0	2.0	HL	33.0	23.0	40.0	28.0	R	right	0.268200000048	15567.0
n/a	n/a	h6	40.0	3.0	HL	44.0	27.0	40.0	28.0	R	right	0.302	15594.0
n/a	n/a	h6	40.0	4.0	HL	22.0	36.0	40.0	28.0	X	left	0.571300000072	15616.0
n/a	n/a	h6	40.0	5.0	HL	47.0	30.0	40.0	28.0	X	right	0.541400000095	15646.0
n/a	n/a	h6	40.0	6.0	HL	31.0	16.0	40.0	28.0	X	right	0.384800000071	15662.0
n/a	n/a	h6	40.0	7.0	HL	47.0	34.0	40.0	28.0	X	left	0.441299999952	15709.0
n/a	n/a	h6	40.0	8.0	HL	39.0	20.0	40.0	28.0	X	left	0.201	15748.0
n/a	n/a	h6	40.0	9.0	HL	37.0	36.0	40.0	28.0	X	left	0.117699999928	15785.0
n/a	n/a	h1	41.0	0.0	LH	65.0	58.0	52.0	60.0	L	left	0.300700000048	15850.0
n/a	n/a	h1	41.0	1.0	LH	49.0	64.0	52.0	60.0	L	left	0.341600000024	15899.0
n/a	n/a	h1	41.0	2.0	LH	52.0	73.0	52.0	60.0	R	right	0.234800000072	15972.0
n/a	n/a	h1	41.0	3.0	LH	52.0	64.0	52.0	60.0	R	right	0.351299999952	16036.0
n/a	n/a	h1	41.0	4.0	LH	52.0	62.0	52.0	60.0	X	right	0.284699999928	16098.0
n/a	n/a	h1	42.0	0.0	LH	22.0	75.0	40.0	70.0	R	right	0.434100000024	16173.0
n/a	n/a	h1	42.0	1.0	LH	30.0	65.0	40.0	70.0	R	right	0.246799999952	16238.0
n/a	n/a	h1	42.0	2.0	LH	40.0	70.0	40.0	70.0	R	right	0.370399999976	16308.0
n/a	n/a	h1	42.0	3.0	LH	43.0	80.0	40.0	70.0	L	left	0.652700000048	16351.0
n/a	n/a	h1	42.0	4.0	LH	44.0	86.0	40.0	70.0	X	right	0.351200000048	16437.0
n/a	n/a	h1	43.0	0.0	LH	32.0	50.0	36.0	40.0	L	left	0.384400000095	16469.0
n/a	n/a	h1	43.0	1.0	LH	39.0	44.0	36.0	40.0	R	right	0.234299999952	16513.0
n/a	n/a	h1	43.0	2.0	LH	27.0	48.0	36.0	40.0	L	left	0.209399999976	16540.0
n/a	n/a	h1	43.0	3.0	LH	44.0	31.0	36.0	40.0	L	left	1.61910000002	16584.0
n/a	n/a	h1	43.0	4.0	LH	42.0	45.0	36.0	40.0	X	right	1.41869999993	16629.0
n/a	n/a	h1	44.0	0.0	HL	58.0	57.0	64.0	60.0	L	left	0.452800000072	16687.0
n/a	n/a	h1	44.0	1.0	HL	68.0	62.0	64.0	60.0	R	right	0.2345	16749.0
n/a	n/a	h1	44.0	2.0	HL	61.0	75.0	64.0	60.0	L	left	0.202899999976	16810.0
n/a	n/a	h1	44.0	3.0	HL	44.0	57.0	64.0	60.0	R	right	0.226	16867.0
n/a	n/a	h1	44.0	4.0	HL	65.0	64.0	64.0	60.0	X	left	0.3875	16932.0
n/a	n/a	h1	45.0	0.0	HL	60.0	55.0	72.0	60.0	L	left	0.238899999976	16992.0
n/a	n/a	h1	45.0	1.0	HL	69.0	48.0	72.0	60.0	R	right	0.2175	17040.0
n/a	n/a	h1	45.0	2.0	HL	62.0	75.0	72.0	60.0	L	left	0.2515	17102.0
n/a	n/a	h1	45.0	3.0	HL	69.0	50.0	72.0	60.0	R	right	0.253700000048	17152.0
n/a	n/a	h1	45.0	4.0	HL	75.0	58.0	72.0	60.0	X	left	0.3175	17227.0
n/a	n/a	h6	46.0	0.0	LH	72.0	71.0	60.0	64.0	L	left	0.251600000024	17299.0
n/a	n/a	h6	46.0	1.0	LH	61.0	87.0	60.0	64.0	L	left	0.603200000048	17360.0
n/a	n/a	h6	46.0	2.0	LH	49.0	70.0	60.0	64.0	R	right	0.301399999976	17430.0
n/a	n/a	h6	46.0	3.0	LH	61.0	65.0	60.0	64.0	R	right	0.318100000024	17495.0
n/a	n/a	h6	46.0	4.0	LH	70.0	72.0	60.0	64.0	X	right	1.109	17567.0
n/a	n/a	h6	46.0	5.0	LH	69.0	65.0	60.0	64.0	X	right	0.257100000024	17632.0
n/a	n/a	h6	46.0	6.0	LH	60.0	52.0	60.0	64.0	X	right	0.184200000048	17684.0
n/a	n/a	h6	46.0	7.0	LH	63.0	61.0	60.0	64.0	X	right	0.370700000048	17745.0
n/a	n/a	h6	46.0	8.0	LH	58.0	76.0	60.0	64.0	X	right	0.234600000024	17821.0
n/a	n/a	h6	46.0	9.0	LH	54.0	59.0	60.0	64.0	X	right	0.203799999952	17880.0
n/a	n/a	h1	47.0	0.0	HL	67.0	59.0	68.0	60.0	L	left	0.271899999976	17947.0
n/a	n/a	h1	47.0	1.0	HL	54.0	58.0	68.0	60.0	R	right	0.221599999905	18005.0
n/a	n/a	h1	47.0	2.0	HL	57.0	48.0	68.0	60.0	L	left	0.3995	18062.0
n/a	n/a	h1	47.0	3.0	HL	65.0	61.0	68.0	60.0	L	left	0.318099999905	18127.0
n/a	n/a	h1	47.0	4.0	HL	70.0	45.0	68.0	60.0	X	right	0.217699999928	18172.0
n/a	n/a	h1	48.0	0.0	HL	67.0	16.0	60.0	30.0	R	right	0.6345	18188.0
n/a	n/a	h1	48.0	1.0	HL	67.0	38.0	60.0	30.0	R	right	0.359100000024	18226.0
n/a	n/a	h1	48.0	2.0	HL	83.0	27.0	60.0	30.0	R	right	0.481400000095	18253.0
n/a	n/a	h1	48.0	3.0	HL	55.0	34.0	60.0	30.0	L	left	1.78420000005	18308.0
n/a	n/a	h1	48.0	4.0	HL	70.0	22.0	60.0	30.0	X	left	0.485800000072	18378.0
n/a	n/a	h6	49.0	0.0	HL	72.0	45.0	70.0	40.0	L	left	0.704399999976	18450.0
n/a	n/a	h6	49.0	1.0	HL	68.0	29.0	70.0	40.0	L	left	0.252200000048	18518.0
n/a	n/a	h6	49.0	2.0	HL	64.0	27.0	70.0	40.0	L	left	0.317900000095	18582.0
n/a	n/a	h6	49.0	3.0	HL	82.0	31.0	70.0	40.0	R	right	0.343	18613.0
n/a	n/a	h6	49.0	4.0	HL	77.0	23.0	70.0	40.0	X	left	0.673700000048	18690.0
n/a	n/a	h6	49.0	5.0	HL	74.0	35.0	70.0	40.0	X	left	0.101100000024	18764.0
n/a	n/a	h6	49.0	6.0	HL	86.0	53.0	70.0	40.0	X	left	0.0372999999523	18850.0
n/a	n/a	h6	49.0	7.0	HL	68.0	32.0	70.0	40.0	X	left	0.0172999999523	18918.0
n/a	n/a	h6	49.0	8.0	HL	71.0	27.0	70.0	40.0	X	left	0.0378000000715	18989.0
n/a	n/a	h6	49.0	9.0	HL	67.0	43.0	70.0	40.0	X	left	0.068	19056.0
n/a	n/a	h6	50.0	0.0	HL	89.0	65.0	90.0	60.0	L	left	0.351	19145.0
n/a	n/a	h6	50.0	1.0	HL	88.0	57.0	90.0	60.0	L	left	0.4015	19233.0
n/a	n/a	h6	50.0	2.0	HL	84.0	72.0	90.0	60.0	R	right	0.318	19305.0
n/a	n/a	h6	50.0	3.0	HL	76.0	67.0	90.0	60.0	R	right	0.234299999952	19372.0
n/a	n/a	h6	50.0	4.0	HL	96.0	66.0	90.0	60.0	X	left	0.3755	19468.0
n/a	n/a	h6	50.0	5.0	HL	99.0	61.0	90.0	60.0	X	left	0.0512000000477	19567.0
n/a	n/a	h6	50.0	6.0	HL	84.0	67.0	90.0	60.0	X	left	0.0561000000238	19651.0
n/a	n/a	h6	50.0	7.0	HL	91.0	70.0	90.0	60.0	X	left	0.0176999999285	19742.0
n/a	n/a	h6	50.0	8.0	HL	85.0	51.0	90.0	60.0	X	left	0.702200000048	19827.0
n/a	n/a	h6	50.0	9.0	HL	83.0	59.0	90.0	60.0	X	left	0.117799999952	19910.0
n/a	n/a	h6	51.0	0.0	HL	60.0	51.0	60.0	52.0	R	right	0.458399999976	19961.0
n/a	n/a	h6	51.0	1.0	HL	55.0	43.0	60.0	52.0	L	left	0.200700000048	20016.0
n/a	n/a	h6	51.0	2.0	HL	59.0	62.0	60.0	52.0	L	left	0.338299999952	20075.0
n/a	n/a	h6	51.0	3.0	HL	53.0	52.0	60.0	52.0	R	right	0.302100000024	20127.0
n/a	n/a	h6	51.0	4.0	HL	52.0	57.0	60.0	52.0	X	left	1.2355	20179.0
n/a	n/a	h6	51.0	5.0	HL	78.0	49.0	60.0	52.0	X	left	0.117700000048	20257.0
n/a	n/a	h6	51.0	6.0	HL	44.0	61.0	60.0	52.0	X	left	0.0682999999523	20301.0
n/a	n/a	h6	51.0	7.0	HL	65.0	44.0	60.0	52.0	X	left	0.100700000048	20366.0
n/a	n/a	h6	51.0	8.0	HL	60.0	42.0	60.0	52.0	X	left	0.1015	20426.0
n/a	n/a	h6	51.0	9.0	HL	59.0	67.0	60.0	52.0	X	left	0.101100000024	20485.0
n/a	n/a	h6	52.0	0.0	LH	40.0	38.0	40.0	48.0	L	left	0.284300000072	20525.0
n/a	n/a	h6	52.0	1.0	LH	42.0	44.0	40.0	48.0	L	left	0.284	20567.0
n/a	n/a	h6	52.0	2.0	LH	60.0	47.0	40.0	48.0	R	right	0.234299999952	20614.0
n/a	n/a	h6	52.0	3.0	LH	37.0	52.0	40.0	48.0	R	right	0.267899999976	20666.0
n/a	n/a	h6	52.0	4.0	LH	31.0	59.0	40.0	48.0	X	right	0.599899999976	20725.0
n/a	n/a	h6	52.0	5.0	LH	39.0	40.0	40.0	48.0	X	right	0.117400000095	20765.0
n/a	n/a	h6	52.0	6.0	LH	43.0	44.0	40.0	48.0	X	right	0.101199999928	20809.0
n/a	n/a	h6	52.0	7.0	LH	50.0	47.0	40.0	48.0	X	right	0.115199999929	20856.0
n/a	n/a	h6	52.0	8.0	LH	55.0	41.0	40.0	48.0	X	right	0.418299999952	20897.0
n/a	n/a	h6	52.0	9.0	LH	34.0	45.0	40.0	48.0	X	left	0.267699999928	20931.0
n/a	n/a	h6	53.0	0.0	LH	19.0	45.0	30.0	60.0	R	right	0.301199999928	20976.0
n/a	n/a	h6	53.0	1.0	LH	39.0	62.0	30.0	60.0	L	left	0.167399999976	21015.0
n/a	n/a	h6	53.0	2.0	LH	24.0	65.0	30.0	60.0	L	left	0.401300000072	21039.0
n/a	n/a	h6	53.0	3.0	LH	42.0	55.0	30.0	60.0	L	left	0.291799999952	21081.0
n/a	n/a	h6	53.0	4.0	LH	37.0	72.0	30.0	60.0	X	right	1.171	21153.0
n/a	n/a	h6	53.0	5.0	LH	31.0	61.0	30.0	60.0	X	right	0.204100000024	21214.0
n/a	n/a	h6	53.0	6.0	LH	33.0	50.0	30.0	60.0	X	right	0.252699999928	21264.0
n/a	n/a	h6	53.0	7.0	LH	29.0	88.0	30.0	60.0	X	right	0.201099999905	21352.0
n/a	n/a	h6	53.0	8.0	LH	11.0	62.0	30.0	60.0	X	right	0.185600000024	21414.0
n/a	n/a	h6	53.0	9.0	LH	44.0	70.0	30.0	60.0	X	right	0.252200000048	21484.0
n/a	n/a	h6	54.0	0.0	HL	41.0	38.0	40.0	28.0	L	left	0.384199999929	21525.0
n/a	n/a	h6	54.0	1.0	HL	37.0	27.0	40.0	28.0	L	left	0.284	21562.0
n/a	n/a	h6	54.0	2.0	HL	33.0	23.0	40.0	28.0	R	right	0.273700000048	21585.0
n/a	n/a	h6	54.0	3.0	HL	44.0	40.0	40.0	28.0	R	right	0.367400000095	21625.0
n/a	n/a	h6	54.0	4.0	HL	27.0	30.0	40.0	28.0	X	right	0.953899999976	21655.0
n/a	n/a	h6	54.0	5.0	HL	36.0	28.0	40.0	28.0	X	right	0.150899999976	21683.0
n/a	n/a	h6	54.0	6.0	HL	45.0	35.0	40.0	28.0	X	right	0.191	21718.0
n/a	n/a	h6	54.0	7.0	HL	44.0	28.0	40.0	28.0	X	right	0.253699999928	21746.0
n/a	n/a	h6	54.0	8.0	HL	42.0	30.0	40.0	28.0	X	right	0.253099999905	21776.0
n/a	n/a	h6	54.0	9.0	HL	45.0	31.0	40.0	28.0	X	right	0.1405	21807.0
n/a	n/a	h1	55.0	0.0	LH	40.0	64.0	40.0	52.0	L	left	0.484799999952	21847.0
n/a	n/a	h1	55.0	1.0	LH	34.0	52.0	40.0	52.0	L	left	0.367899999976	21881.0
n/a	n/a	h1	55.0	2.0	LH	40.0	58.0	40.0	52.0	R	right	0.257600000024	21939.0
n/a	n/a	h1	55.0	3.0	LH	58.0	62.0	40.0	52.0	L	left	0.255399999976	21997.0
n/a	n/a	h1	55.0	4.0	LH	44.0	48.0	40.0	52.0	X	right	1.5025	22045.0
n/a	n/a	h6	56.0	0.0	HL	60.0	56.0	60.0	52.0	R	right	0.418199999929	22101.0
n/a	n/a	h6	56.0	1.0	HL	67.0	49.0	60.0	52.0	L	left	0.134	22168.0
n/a	n/a	h6	56.0	2.0	HL	67.0	51.0	60.0	52.0	R	right	0.184200000048	22219.0
n/a	n/a	h6	56.0	3.0	HL	69.0	59.0	60.0	52.0	R	right	0.401	22278.0
n/a	n/a	h6	56.0	4.0	HL	70.0	78.0	60.0	52.0	X	right	0.884600000024	22356.0
n/a	n/a	h6	56.0	5.0	HL	55.0	45.0	60.0	52.0	X	right	0.517899999976	22401.0
n/a	n/a	h6	56.0	6.0	HL	75.0	51.0	60.0	52.0	X	right	0.218	22452.0
n/a	n/a	h6	56.0	7.0	HL	66.0	67.0	60.0	52.0	X	left	0.301400000095	22518.0
n/a	n/a	h6	56.0	8.0	HL	61.0	45.0	60.0	52.0	X	left	0.434600000024	22579.0
n/a	n/a	h6	56.0	9.0	HL	60.0	63.0	60.0	52.0	X	left	0.301299999952	22639.0
n/a	n/a	h6	57.0	0.0	HL	39.0	36.0	40.0	36.0	R	right	0.284399999976	22675.0
n/a	n/a	h6	57.0	1.0	HL	31.0	38.0	40.0	36.0	R	right	0.536100000024	22713.0
n/a	n/a	h6	57.0	2.0	HL	46.0	27.0	40.0	36.0	L	left	0.217799999952	22759.0
n/a	n/a	h6	57.0	3.0	HL	35.0	50.0	40.0	36.0	L	left	0.251399999976	22794.0
n/a	n/a	h6	57.0	4.0	HL	46.0	20.0	40.0	36.0	X	right	1.355	22814.0
n/a	n/a	h6	57.0	5.0	HL	45.0	22.0	40.0	36.0	X	left	0.451299999952	22859.0
n/a	n/a	h6	57.0	6.0	HL	31.0	42.0	40.0	36.0	X	left	0.100899999976	22890.0
n/a	n/a	h6	57.0	7.0	HL	40.0	31.0	40.0	36.0	X	left	0.067	22930.0
n/a	n/a	h6	57.0	8.0	HL	49.0	43.0	40.0	36.0	X	left	0.141399999976	22979.0
n/a	n/a	h6	57.0	9.0	HL	26.0	21.0	40.0	36.0	X	left	0.192399999976	23005.0
n/a	n/a	h1	58.0	0.0	HL	75.0	57.0	64.0	60.0	L	left	0.3675	23080.0
n/a	n/a	h1	58.0	1.0	HL	68.0	75.0	64.0	60.0	R	right	0.142199999928	23155.0
n/a	n/a	h1	58.0	2.0	HL	61.0	62.0	64.0	60.0	L	left	0.134799999952	23216.0
n/a	n/a	h1	58.0	3.0	HL	44.0	57.0	64.0	60.0	R	right	0.184200000048	23273.0
n/a	n/a	h1	58.0	4.0	HL	58.0	52.0	64.0	60.0	X	left	0.167699999929	23331.0
n/a	n/a	h6	59.0	0.0	LH	19.0	65.0	30.0	60.0	R	right	0.317600000024	23396.0
n/a	n/a	h6	59.0	1.0	LH	39.0	62.0	30.0	60.0	L	left	0.150899999976	23435.0
n/a	n/a	h6	59.0	2.0	LH	24.0	45.0	30.0	60.0	L	left	0.351	23459.0
n/a	n/a	h6	59.0	3.0	LH	25.0	55.0	30.0	60.0	L	left	0.387799999952	23484.0
n/a	n/a	h6	59.0	4.0	LH	40.0	55.0	30.0	60.0	X	right	0.351399999976	23539.0
n/a	n/a	h6	59.0	5.0	LH	23.0	71.0	30.0	60.0	X	right	0.317599999905	23610.0
n/a	n/a	h6	59.0	6.0	LH	42.0	65.0	30.0	60.0	X	right	0.306299999952	23675.0
n/a	n/a	h6	59.0	7.0	LH	28.0	55.0	30.0	60.0	X	right	0.174600000024	23730.0
n/a	n/a	h6	59.0	8.0	LH	17.0	65.0	30.0	60.0	X	right	0.234699999928	23795.0
n/a	n/a	h6	59.0	9.0	LH	30.0	64.0	30.0	60.0	X	right	0.518200000048	23859.0
n/a	n/a	h6	60.0	0.0	LH	69.0	62.0	56.0	60.0	R	right	0.341600000024	23921.0
n/a	n/a	h6	60.0	1.0	LH	54.0	53.0	56.0	60.0	L	left	0.317899999976	23975.0
n/a	n/a	h6	60.0	2.0	LH	57.0	59.0	56.0	60.0	L	left	0.334199999929	24032.0
n/a	n/a	h6	60.0	3.0	LH	62.0	60.0	56.0	60.0	L	left	0.284200000048	24094.0
n/a	n/a	h6	60.0	4.0	LH	57.0	51.0	56.0	60.0	X	right	0.309	24145.0
n/a	n/a	h6	60.0	5.0	LH	58.0	50.0	56.0	60.0	X	left	1.08860000002	24203.0
n/a	n/a	h6	60.0	6.0	LH	65.0	48.0	56.0	60.0	X	left	0.492100000024	24268.0
n/a	n/a	h6	60.0	7.0	LH	64.0	68.0	56.0	60.0	X	left	0.201	24332.0
n/a	n/a	h6	60.0	8.0	LH	55.0	54.0	56.0	60.0	X	left	0.338899999976	24387.0
n/a	n/a	h6	60.0	9.0	LH	44.0	46.0	56.0	60.0	X	left	0.1905	24431.0
n/a	n/a	h1	61.0	0.0	HL	54.0	35.0	60.0	40.0	L	left	0.484599999905	24485.0
n/a	n/a	h1	61.0	1.0	HL	63.0	42.0	60.0	40.0	R	right	0.167600000024	24527.0
n/a	n/a	h1	61.0	2.0	HL	57.0	53.0	60.0	40.0	L	left	0.169299999952	24584.0
n/a	n/a	h1	61.0	3.0	HL	57.0	48.0	60.0	40.0	R	right	0.186900000095	24632.0
n/a	n/a	h1	61.0	4.0	HL	58.0	50.0	60.0	40.0	X	left	0.401300000072	24690.0
n/a	n/a	h6	62.0	0.0	HL	60.0	56.0	60.0	52.0	R	right	0.439100000024	24746.0
n/a	n/a	h6	62.0	1.0	HL	62.0	49.0	60.0	52.0	L	left	0.5265	24808.0
n/a	n/a	h6	62.0	2.0	HL	67.0	51.0	60.0	52.0	R	right	0.226600000024	24859.0
n/a	n/a	h6	62.0	3.0	HL	69.0	53.0	60.0	52.0	R	right	0.769100000024	24912.0
n/a	n/a	h6	62.0	4.0	HL	57.0	49.0	60.0	52.0	X	left	0.485199999929	24969.0
n/a	n/a	h6	62.0	5.0	HL	62.0	39.0	60.0	52.0	X	left	0.468300000072	25031.0
n/a	n/a	h6	62.0	6.0	HL	42.0	47.0	60.0	52.0	X	left	0.302	25073.0
n/a	n/a	h6	62.0	7.0	HL	69.0	36.0	60.0	52.0	X	left	0.258700000048	25142.0
n/a	n/a	h6	62.0	8.0	HL	67.0	45.0	60.0	52.0	X	left	0.176100000024	25209.0
n/a	n/a	h6	62.0	9.0	HL	58.0	56.0	60.0	52.0	X	left	0.201	25267.0
n/a	n/a	h6	63.0	0.0	LH	65.0	77.0	60.0	80.0	L	left	0.436799999952	25332.0
n/a	n/a	h6	63.0	1.0	LH	60.0	78.0	60.0	80.0	L	left	0.301300000072	25392.0
n/a	n/a	h6	63.0	2.0	LH	58.0	68.0	60.0	80.0	L	left	0.301200000048	25450.0
n/a	n/a	h6	63.0	3.0	LH	57.0	81.0	60.0	80.0	R	right	0.267800000071	25531.0
n/a	n/a	h6	63.0	4.0	LH	64.0	82.0	60.0	80.0	X	right	0.690399999976	25613.0
n/a	n/a	h6	63.0	5.0	LH	53.0	89.0	60.0	80.0	X	right	0.117700000048	25702.0
n/a	n/a	h6	63.0	6.0	LH	58.0	72.0	60.0	80.0	X	right	0.117899999976	25774.0
n/a	n/a	h6	63.0	7.0	LH	56.0	73.0	60.0	80.0	X	right	0.0678999999761	25847.0
n/a	n/a	h6	63.0	8.0	LH	59.0	91.0	60.0	80.0	X	right	0.117299999952	25938.0
n/a	n/a	h6	63.0	9.0	LH	48.0	67.0	60.0	80.0	X	right	0.0841000000238	26005.0
n/a	n/a	h1	64.0	0.0	LH	25.0	38.0	32.0	40.0	L	left	0.384600000024	26030.0
n/a	n/a	h1	64.0	1.0	LH	44.0	57.0	32.0	40.0	L	left	0.317600000024	26074.0
n/a	n/a	h1	64.0	2.0	LH	29.0	47.0	32.0	40.0	R	right	0.238400000095	26121.0
n/a	n/a	h1	64.0	3.0	LH	36.0	31.0	32.0	40.0	L	left	0.267399999976	26157.0
n/a	n/a	h1	64.0	4.0	LH	14.0	23.0	32.0	40.0	X	right	0.443	26180.0
n/a	n/a	h6	65.0	0.0	LH	53.0	39.0	40.0	48.0	R	right	0.375800000072	26219.0
n/a	n/a	h6	65.0	1.0	LH	50.0	55.0	40.0	48.0	R	right	0.217800000072	26274.0
n/a	n/a	h6	65.0	2.0	LH	44.0	56.0	40.0	48.0	L	left	0.401200000048	26318.0
n/a	n/a	h6	65.0	3.0	LH	49.0	50.0	40.0	48.0	R	right	0.2845	26368.0
n/a	n/a	h6	65.0	4.0	LH	37.0	38.0	40.0	48.0	X	right	0.918399999976	26406.0
n/a	n/a	h6	65.0	5.0	LH	46.0	28.0	40.0	48.0	X	right	0.134299999952	26434.0
n/a	n/a	h6	65.0	6.0	LH	44.0	58.0	40.0	48.0	X	right	0.217599999905	26492.0
n/a	n/a	h6	65.0	7.0	LH	51.0	64.0	40.0	48.0	X	left	0.251299999952	26543.0
n/a	n/a	h6	65.0	8.0	LH	36.0	56.0	40.0	48.0	X	left	0.317799999952	26579.0
n/a	n/a	h6	65.0	9.0	LH	47.0	42.0	40.0	48.0	X	right	0.6435	26621.0
n/a	n/a	h6	66.0	0.0	HL	28.0	15.0	40.0	20.0	L	left	0.308399999976	26649.0
n/a	n/a	h6	66.0	1.0	HL	53.0	16.0	40.0	20.0	L	left	0.2845	26702.0
n/a	n/a	h6	66.0	2.0	HL	34.0	28.0	40.0	20.0	L	left	0.220100000024	26736.0
n/a	n/a	h6	66.0	3.0	HL	53.0	21.0	40.0	20.0	R	right	0.300100000024	26757.0
n/a	n/a	h6	66.0	4.0	HL	40.0	24.0	40.0	20.0	X	left	0.868700000048	26797.0
n/a	n/a	h6	66.0	5.0	HL	52.0	24.0	40.0	20.0	X	left	0.157799999952	26849.0
n/a	n/a	h6	66.0	6.0	HL	55.0	16.0	40.0	20.0	X	left	0.192399999976	26904.0
n/a	n/a	h6	66.0	7.0	HL	24.0	24.0	40.0	20.0	X	left	0.119	26928.0
n/a	n/a	h6	66.0	8.0	HL	40.0	23.0	40.0	20.0	X	left	0.134099999905	26968.0
n/a	n/a	h6	66.0	9.0	HL	45.0	28.0	40.0	20.0	X	left	0.17	27013.0
n/a	n/a	h6	67.0	0.0	LH	60.0	79.0	60.0	72.0	R	right	0.417900000095	27092.0
n/a	n/a	h6	67.0	1.0	LH	57.0	66.0	60.0	72.0	R	right	0.4015	27158.0
n/a	n/a	h6	67.0	2.0	LH	64.0	65.0	60.0	72.0	L	left	0.234299999952	27222.0
n/a	n/a	h6	67.0	3.0	LH	63.0	69.0	60.0	72.0	R	right	0.318299999952	27291.0
n/a	n/a	h6	67.0	4.0	LH	65.0	75.0	60.0	72.0	X	left	0.351200000048	27356.0
n/a	n/a	h6	67.0	5.0	LH	52.0	77.0	60.0	72.0	X	right	0.738699999928	27433.0
n/a	n/a	h6	67.0	6.0	LH	73.0	86.0	60.0	72.0	X	right	0.434900000095	27519.0
n/a	n/a	h6	67.0	7.0	LH	66.0	80.0	60.0	72.0	X	right	0.242700000048	27599.0
n/a	n/a	h6	67.0	8.0	LH	57.0	73.0	60.0	72.0	X	right	0.199799999952	27672.0
n/a	n/a	h6	67.0	9.0	LH	60.0	75.0	60.0	72.0	X	right	0.149899999976	27747.0
n/a	n/a	h1	68.0	0.0	LH	45.0	56.0	40.0	60.0	R	right	0.349299999952	27803.0
n/a	n/a	h1	68.0	1.0	LH	29.0	52.0	40.0	60.0	R	right	0.308299999952	27855.0
n/a	n/a	h1	68.0	2.0	LH	47.0	60.0	40.0	60.0	R	right	0.384900000095	27915.0
n/a	n/a	h1	68.0	3.0	LH	36.0	57.0	40.0	60.0	L	left	0.267700000048	27951.0
n/a	n/a	h1	68.0	4.0	LH	41.0	51.0	40.0	60.0	X	right	0.374800000072	28002.0
n/a	n/a	h6	69.0	0.0	LH	25.0	48.0	20.0	40.0	L	left	0.368	28027.0
n/a	n/a	h6	69.0	1.0	LH	20.0	33.0	20.0	40.0	R	right	0.173200000048	28060.0
n/a	n/a	h6	69.0	2.0	LH	8.0	50.0	20.0	40.0	R	right	0.559100000024	28110.0
n/a	n/a	h6	69.0	3.0	LH	14.0	48.0	20.0	40.0	L	left	0.284700000048	28124.0
n/a	n/a	h6	69.0	4.0	LH	22.0	28.0	20.0	40.0	X	right	0.573700000048	28152.0
n/a	n/a	h6	69.0	5.0	LH	24.0	35.0	20.0	40.0	X	right	0.1175	28187.0
n/a	n/a	h6	69.0	6.0	LH	22.0	40.0	20.0	40.0	X	left	0.451799999952	28209.0
n/a	n/a	h6	69.0	7.0	LH	27.0	49.0	20.0	40.0	X	right	0.351400000095	28258.0
n/a	n/a	h6	69.0	8.0	LH	31.0	37.0	20.0	40.0	X	right	0.0843999999762	28295.0
n/a	n/a	h6	69.0	9.0	LH	26.0	57.0	20.0	40.0	X	right	0.104899999976	28352.0
n/a	n/a	h1	70.0	0.0	LH	32.0	76.0	40.0	60.0	L	left	0.3175	28384.0
n/a	n/a	h1	70.0	1.0	LH	37.0	65.0	40.0	60.0	R	right	0.155800000072	28449.0
n/a	n/a	h1	70.0	2.0	LH	37.0	68.0	40.0	60.0	L	left	0.184200000048	28486.0
n/a	n/a	h1	70.0	3.0	LH	46.0	55.0	40.0	60.0	R	right	0.223	28541.0
n/a	n/a	h1	70.0	4.0	LH	31.0	69.0	40.0	60.0	X	right	0.768200000048	28610.0
n/a	n/a	h1	71.0	0.0	LH	48.0	67.0	40.0	70.0	R	right	0.334600000024	28677.0
n/a	n/a	h1	71.0	1.0	LH	31.0	62.0	40.0	70.0	L	left	0.284200000048	28708.0
n/a	n/a	h1	71.0	2.0	LH	39.0	65.0	40.0	70.0	R	right	0.167399999976	28773.0
n/a	n/a	h1	71.0	3.0	LH	50.0	62.0	40.0	70.0	L	left	0.292	28823.0
n/a	n/a	h1	71.0	4.0	LH	47.0	64.0	40.0	70.0	X	right	0.353800000071	28887.0
n/a	n/a	h1	72.0	0.0	LH	32.0	50.0	36.0	40.0	L	left	0.333399999976	28919.0
n/a	n/a	h1	72.0	1.0	LH	39.0	48.0	36.0	40.0	R	right	0.218200000048	28967.0
n/a	n/a	h1	72.0	2.0	LH	32.0	44.0	36.0	40.0	L	left	0.184199999929	28999.0
n/a	n/a	h1	72.0	3.0	LH	44.0	31.0	36.0	40.0	L	left	1.608	29043.0
n/a	n/a	h1	72.0	4.0	LH	27.0	33.0	36.0	40.0	X	right	0.223800000071	29076.0
n/a	n/a	h1	73.0	0.0	LH	29.0	30.0	28.0	40.0	R	right	0.417799999952	29106.0
n/a	n/a	h1	73.0	1.0	LH	27.0	39.0	28.0	40.0	L	left	0.251100000024	29133.0
n/a	n/a	h1	73.0	2.0	LH	25.0	54.0	28.0	40.0	R	right	0.3015	29187.0
n/a	n/a	h1	73.0	3.0	LH	31.0	44.0	28.0	40.0	L	left	0.334399999976	29218.0
n/a	n/a	h1	73.0	4.0	LH	26.0	45.0	28.0	40.0	X	right	0.174100000024	29263.0
n/a	n/a	h1	74.0	0.0	LH	46.0	75.0	48.0	60.0	R	right	0.353899999976	29338.0
n/a	n/a	h1	74.0	1.0	LH	58.0	48.0	48.0	60.0	R	right	0.584600000024	29386.0
n/a	n/a	h1	74.0	2.0	LH	51.0	58.0	48.0	60.0	L	left	0.251199999929	29437.0
n/a	n/a	h1	74.0	3.0	LH	40.0	57.0	48.0	60.0	R	right	0.250799999952	29494.0
n/a	n/a	h1	74.0	4.0	LH	29.0	51.0	48.0	60.0	X	right	0.736599999905	29545.0
n/a	n/a	h1	75.0	0.0	LH	58.0	43.0	56.0	60.0	L	left	0.438100000024	29603.0
n/a	n/a	h1	75.0	1.0	LH	33.0	67.0	56.0	60.0	R	right	0.184399999976	29670.0
n/a	n/a	h1	75.0	2.0	LH	55.0	59.0	56.0	60.0	L	left	0.368	29725.0
n/a	n/a	h1	75.0	3.0	LH	42.0	64.0	56.0	60.0	R	right	0.3015	29789.0
n/a	n/a	h1	75.0	4.0	LH	66.0	59.0	56.0	60.0	X	right	1.41779999995	29848.0
n/a	n/a	h6	76.0	0.0	HL	55.0	61.0	60.0	52.0	R	right	0.401	29909.0
n/a	n/a	h6	76.0	1.0	HL	60.0	43.0	60.0	52.0	L	left	0.199700000048	29969.0
n/a	n/a	h6	76.0	2.0	HL	65.0	62.0	60.0	52.0	L	left	0.417299999952	30034.0
n/a	n/a	h6	76.0	3.0	HL	53.0	41.0	60.0	52.0	R	right	0.206600000024	30075.0
n/a	n/a	h6	76.0	4.0	HL	61.0	57.0	60.0	52.0	X	left	0.927	30136.0
n/a	n/a	h6	76.0	5.0	HL	59.0	67.0	60.0	52.0	X	left	0.150700000048	30195.0
n/a	n/a	h6	76.0	6.0	HL	42.0	45.0	60.0	52.0	X	left	0.150399999976	30237.0
n/a	n/a	h6	76.0	7.0	HL	60.0	45.0	60.0	52.0	X	left	0.167099999905	30297.0
n/a	n/a	h6	76.0	8.0	HL	64.0	53.0	60.0	52.0	X	left	0.301299999952	30361.0
n/a	n/a	h6	76.0	9.0	HL	56.0	38.0	60.0	52.0	X	left	0.168200000048	30417.0
n/a	n/a	h1	77.0	0.0	LH	52.0	73.0	52.0	60.0	L	left	0.385	30469.0
n/a	n/a	h1	77.0	1.0	LH	49.0	64.0	52.0	60.0	L	left	0.338600000024	30518.0
n/a	n/a	h1	77.0	2.0	LH	65.0	58.0	52.0	60.0	R	right	0.318	30576.0
n/a	n/a	h1	77.0	3.0	LH	52.0	61.0	52.0	60.0	R	right	0.267	30637.0
n/a	n/a	h1	77.0	4.0	LH	57.0	64.0	52.0	60.0	X	right	1.20639999998	30701.0
n/a	n/a	h6	78.0	0.0	LH	64.0	66.0	60.0	72.0	R	right	0.417699999929	30767.0
n/a	n/a	h6	78.0	1.0	LH	57.0	79.0	60.0	72.0	R	right	0.3915	30846.0
n/a	n/a	h6	78.0	2.0	LH	60.0	65.0	60.0	72.0	L	left	0.334200000048	30906.0
n/a	n/a	h6	78.0	3.0	LH	63.0	63.0	60.0	72.0	R	right	0.2675	30969.0
n/a	n/a	h6	78.0	4.0	LH	67.0	90.0	60.0	72.0	X	right	0.669399999976	31059.0
n/a	n/a	h6	78.0	5.0	LH	56.0	69.0	60.0	72.0	X	right	0.325800000072	31128.0
n/a	n/a	h6	78.0	6.0	LH	53.0	64.0	60.0	72.0	X	right	0.353600000024	31192.0
n/a	n/a	h6	78.0	7.0	LH	65.0	72.0	60.0	72.0	X	right	0.284600000024	31264.0
n/a	n/a	h6	78.0	8.0	LH	54.0	66.0	60.0	72.0	X	right	0.269	31330.0
n/a	n/a	h6	78.0	9.0	LH	63.0	62.0	60.0	72.0	X	right	0.266399999976	31392.0
n/a	n/a	h1	79.0	0.0	LH	36.0	57.0	40.0	60.0	R	right	0.520599999905	31449.0
n/a	n/a	h1	79.0	1.0	LH	29.0	52.0	40.0	60.0	R	right	0.301299999952	31501.0
n/a	n/a	h1	79.0	2.0	LH	47.0	60.0	40.0	60.0	R	right	0.234600000024	31561.0
n/a	n/a	h1	79.0	3.0	LH	45.0	56.0	40.0	60.0	L	left	0.458	31606.0
n/a	n/a	h1	79.0	4.0	LH	31.0	50.0	40.0	60.0	X	right	0.518	31656.0
