onset	duration	trial_type	trial_number	event_code	response_time	response	result
-128.2128739	n/a	n/a	n/a	1	n/a	n/a	n/a
n/a	n/a	n/a	n/a	11	n/a	n/a	BREATHING_LOAD_RUN=YES
-128.2128739	n/a	n/a	n/a	1	n/a	n/a	n/a
-112.051504	n/a	4	0.0	3	n/a	n/a	n/a
-112.051504	9	4	0.0	4	n/a	n/a	9
-103.0354139	2.5	4	0.0	5	n/a	n/a	3
-102.6675275	n/a	2_4_0	0.0	8	9.383976500015708	-1.0	-70
-101.5011886	n/a	2_4_1	0.0	8	10.550315400119873	-1.0	-140
-100.4856346	1	4	0.0	9	n/a	n/a	-200
-100.4856346	1	4	0.0	10	n/a	n/a	Miss
-99.4786185999	n/a	4	0.0	7	n/a	n/a	16.5
-95.5533918999	n/a	4	1.0	3	n/a	n/a	n/a
-95.5533918999	9	4	1.0	4	n/a	n/a	9
-86.5374632003	2.5	4	1.0	5	n/a	n/a	3
-86.1203335999	n/a	1_4_0	1.0	8	9.433058300055565	-1.0	20
-85.8697315003	n/a	1_4_1	1.0	8	9.683660399634393	-1.0	40
-85.420585	n/a	1_4_2	1.0	8	10.132806899957359	-1.0	-30
-85.1198164001	n/a	1_4_3	1.0	8	10.433575499802828	1.0	-50
-84.0210956	 n/a	4	1.0	6	n/a	n/a	n/a
-84.0183580001	0.75	4	1.0	13	0.75	n/a	20
-83.2650623	0.75	4	1.0	13	0.75	n/a	20
-82.5114202001	0.75	4	1.0	13	0.75	n/a	-70
-81.7594953999	0.75	4	1.0	13	0.75	n/a	-20
-80.9830240002	1	4	1.0	9	n/a	n/a	-50
-80.9830240002	1	4	1.0	10	n/a	n/a	ONLL Error
-79.9748272998	n/a	4	1.0	7	n/a	n/a	16.5
-79.0549137001	n/a	5	2.0	3	n/a	n/a	n/a
-79.0549137001	9	5	2.0	4	n/a	n/a	9
-70.0402863002	2.5	5	2.0	5	n/a	n/a	3
-69.6221954999	n/a	6_5_0	2.0	8	9.432718200143428	1.0	-20
-69.3732703002	n/a	6_5_1	2.0	8	9.681643399875613	1.0	120
-69.1557815	n/a	6_5_2	2.0	8	9.899132200051099	1.0	100
-68.9559817999	n/a	6_5_3	2.0	8	10.09893190022558	1.0	80
-68.7397230002	n/a	6_5_4	2.0	8	10.315190699882804	-1.0	100
-67.5233657002	 n/a	5	2.0	6	n/a	n/a	n/a
-67.5213266001	0.75	5	2.0	13	0.75	n/a	-20
-66.7681507003	0.75	5	2.0	13	0.75	n/a	140
-66.0144572998	0.75	5	2.0	13	0.75	n/a	-20
-65.2613124	0.75	5	2.0	13	0.75	n/a	-20
-64.5084996	0.75	5	2.0	13	0.75	n/a	20
-63.7364047999	1	5	2.0	9	n/a	n/a	100
-63.7364047999	1	5	2.0	10	n/a	n/a	ONLL Error
-62.7305610999	n/a	5	2.0	7	n/a	n/a	17.25
-61.7927434002	n/a	3	3.0	3	n/a	n/a	n/a
-61.7927434002	9	3	3.0	4	n/a	n/a	9
-52.7915171999	2.5	3	3.0	5	n/a	n/a	3
-52.1734198001	n/a	3_3_0	3.0	8	9.61932360008359	1.0	-20
-51.7914629001	n/a	3_3_1	3.0	8	10.001280500087887	1.0	-40
-51.3745320002	n/a	3_3_2	3.0	8	10.418211400043221	-1.0	-110
-50.2754883002	 n/a	3	3.0	6	n/a	n/a	n/a
-50.2736455002	0.75	3	3.0	13	0.75	n/a	-20
-49.5195285003	0.75	3	3.0	13	0.75	n/a	-20
-48.7662372002	0.75	3	3.0	13	0.75	n/a	-70
-47.9971694001	1	3	3.0	9	n/a	n/a	-110
-47.9971694001	1	3	3.0	10	n/a	n/a	OLL Error
-46.9911370999	n/a	3	3.0	7	n/a	n/a	15.75
-46.0422324999	n/a	5	4.0	3	n/a	n/a	n/a
-46.0422324999	9	5	4.0	4	n/a	n/a	9
-37.0268755001	2.5	5	4.0	5	n/a	n/a	3
-36.5930177001	n/a	5_5_0	4.0	8	9.449214799795302	1.0	-20
-36.3101253998	n/a	5_5_1	4.0	8	9.732107100076972	1.0	-40
-35.8439664999	n/a	5_5_2	4.0	8	10.198266000021247	1.0	100
-35.2767162998	n/a	5_5_3	4.0	8	10.765516200102867	1.0	80
-35.0438713999	n/a	5_5_4	4.0	8	10.998361099977048	1.0	60
-34.5111046	 n/a	5	4.0	6	n/a	n/a	n/a
-34.5099903001	0.75	5	4.0	13	0.75	n/a	-20
-33.7586043002	0.75	5	4.0	13	0.75	n/a	-20
-33.0062565999	0.75	5	4.0	13	0.75	n/a	140
-32.2533066999	0.75	5	4.0	13	0.75	n/a	-20
-31.500184	0.75	5	4.0	13	0.75	n/a	-20
-30.7285656002	1	5	4.0	9	n/a	n/a	60
-30.7285656002	1	5	4.0	10	n/a	n/a	ONLL Correct
-29.7214071001	n/a	5	4.0	7	n/a	n/a	17.25
-28.7947994	n/a	3	5.0	3	n/a	n/a	n/a
-28.7947994	9	3	5.0	4	n/a	n/a	9
-19.7796148001	2.5	3	5.0	5	n/a	n/a	3
-19.1452317	n/a	4_3_0	5.0	8	9.649567699991168	1.0	-20
-18.8454469	n/a	4_3_1	5.0	8	9.949352500028908	1.0	-40
-18.6619231002	n/a	4_3_2	5.0	8	10.132876299787313	-1.0	-20
-17.2622492001	 n/a	3	5.0	6	n/a	n/a	n/a
-17.261097	0.75	3	5.0	13	0.75	n/a	-20
-16.5069925003	0.75	3	5.0	13	0.75	n/a	-20
-15.7520693	0.75	3	5.0	13	0.75	n/a	20
-14.9809506	1	3	5.0	9	n/a	n/a	-20
-14.9809506	1	3	5.0	10	n/a	n/a	ONLL Correct
-13.9747486999	n/a	3	5.0	7	n/a	n/a	15.75
8.0	0	n/a	n/a	2	n/a	n/a	n/a
16.0158739998	n/a	3	0.0	3	n/a	n/a	n/a
16.0158739998	9	3	0.0	4	n/a	n/a	9
25.0309845	2.5	3	0.0	5	n/a	n/a	2.5
25.3490807	n/a	4_3_0	0.0	8	9.3332067001611	1.0	-20
25.7661151998	n/a	4_3_1	0.0	8	9.75024119997397	-1.0	-90
26.0154431001	n/a	4_3_2	0.0	8	9.999569100327788	-1.0	-70
27.5311854999	 n/a	3	0.0	6	n/a	n/a	n/a
27.533059	0.75	3	0.0	13	0.75	n/a	-20
28.2854587999	0.75	3	0.0	13	0.75	n/a	-70
29.0377222002	0.75	3	0.0	13	0.75	n/a	20
29.8044996001	1	3	0.0	9	n/a	n/a	-70
29.8044996001	1	3	0.0	10	n/a	n/a	OLL Error
30.8119570999	n/a	3	0.0	7	n/a	n/a	15.75
31.7642779998	n/a	4	1.0	3	n/a	n/a	n/a
31.7642779998	9	4	1.0	4	n/a	n/a	9
40.779569	2.5	4	1.0	5	n/a	n/a	2.5
41.1303074998	n/a	2_4_0	1.0	8	9.36602950002998	1.0	-20
41.3799196999	n/a	2_4_1	1.0	8	9.61564170010388	1.0	-40
41.5967901	n/a	2_4_2	1.0	8	9.832512100227175	1.0	-60
41.8798273001	n/a	2_4_3	1.0	8	10.115549300331624	-1.0	-130
43.2796740998	 n/a	4	1.0	6	n/a	n/a	n/a
43.2810025997	0.75	4	1.0	13	0.75	n/a	-20
44.0336285997	0.75	4	1.0	13	0.75	n/a	-20
44.7862149999	0.75	4	1.0	13	0.75	n/a	-20
45.5387939001	0.75	4	1.0	13	0.75	n/a	-70
46.3061321001	1	4	1.0	9	n/a	n/a	-130
46.3061321001	1	4	1.0	10	n/a	n/a	OLL Error
47.3117209999	n/a	4	1.0	7	n/a	n/a	16.5
48.2620488	n/a	4	2.0	3	n/a	n/a	n/a
48.2620488	9	4	2.0	4	n/a	n/a	9
57.2779783001	2.5	4	2.0	5	n/a	n/a	2.5
57.6115668002	n/a	4_4_0	2.0	8	9.349518000148237	-1.0	20
57.8602348999	n/a	4_4_1	2.0	8	9.598186099901797	-1.0	-50
58.0606502998	n/a	4_4_2	2.0	8	9.798601499758659	-1.0	-120
58.2612660998	n/a	4_4_3	2.0	8	9.999217299744489	-1.0	-100
59.7946043001	 n/a	4	2.0	6	n/a	n/a	n/a
59.7972157998	0.75	4	2.0	13	0.75	n/a	20
60.5488554002	0.75	4	2.0	13	0.75	n/a	-70
61.3025064999	0.75	4	2.0	13	0.75	n/a	-70
62.0540258	0.75	4	2.0	13	0.75	n/a	20
62.8301519998	1	4	2.0	9	n/a	n/a	-100
62.8301519998	1	4	2.0	10	n/a	n/a	ONLL Error
63.836259	n/a	4	2.0	7	n/a	n/a	16.5
64.7767906999	n/a	5	3.0	3	n/a	n/a	n/a
64.7767906999	9	5	3.0	4	n/a	n/a	9
73.7914648	2.5	5	3.0	5	n/a	n/a	2.5
73.9421136999	n/a	5_5_0	3.0	8	9.165322999935595	1.0	-20
74.1255965	n/a	5_5_1	3.0	8	9.348805800080301	1.0	-40
74.3265566002	n/a	5_5_2	3.0	8	9.549765900243074	1.0	100
74.5262576002	n/a	5_5_3	3.0	8	9.74946690024808	1.0	80
74.7260574	n/a	5_5_4	3.0	8	9.949266700074077	-1.0	10
76.2921774001	 n/a	5	3.0	6	n/a	n/a	n/a
76.2939383998	0.75	5	3.0	13	0.75	n/a	-20
77.0476103998	0.75	5	3.0	13	0.75	n/a	-20
77.8001315999	0.75	5	3.0	13	0.75	n/a	140
78.5527225002	0.75	5	3.0	13	0.75	n/a	-20
79.3050966999	0.75	5	3.0	13	0.75	n/a	-70
80.0758838002	1	5	3.0	9	n/a	n/a	10
80.0758838002	1	5	3.0	10	n/a	n/a	OLL Error
81.0823884001	n/a	5	3.0	7	n/a	n/a	17.25
82.0246144999	n/a	5	4.0	3	n/a	n/a	n/a
82.0246144999	9	5	4.0	4	n/a	n/a	9
91.0396018	2.5	5	4.0	5	n/a	n/a	2.5
91.4914679001	n/a	2_5_0	4.0	8	9.46685340022668	1.0	-20
92.0396857001	n/a	2_5_1	4.0	8	10.015071200206878	1.0	-40
92.4898628001	n/a	2_5_2	4.0	8	10.465248300228268	1.0	-60
92.8897417998	n/a	2_5_3	4.0	8	10.865127299912274	1.0	-80
93.1240777001	n/a	2_5_4	4.0	8	11.099463200196624	1.0	-100
93.5397035	 n/a	5	4.0	6	n/a	n/a	n/a
93.5412785001	0.75	5	4.0	13	0.75	n/a	-20
94.2939379998	0.75	5	4.0	13	0.75	n/a	-20
95.047365	0.75	5	4.0	13	0.75	n/a	-20
95.8004472	0.75	5	4.0	13	0.75	n/a	-20
96.5534411999	0.75	5	4.0	13	0.75	n/a	-20
97.3222420998	1	5	4.0	9	n/a	n/a	-100
97.3222420998	1	5	4.0	10	n/a	n/a	OLL Error
98.3288706001	n/a	5	4.0	7	n/a	n/a	17.25
99.2722434998	n/a	5	5.0	3	n/a	n/a	n/a
99.2722434998	9	5	5.0	4	n/a	n/a	9
108.2878841	2.5	5	5.0	5	n/a	n/a	2.5
108.571489	n/a	6_5_0	5.0	8	9.299245500005783	1.0	-20
108.8212703	n/a	6_5_1	5.0	8	9.549026800319552	1.0	120
109.0553807	n/a	6_5_2	5.0	8	9.783137200400231	1.0	100
109.471143	n/a	6_5_3	5.0	8	10.198899500072002	1.0	80
109.705676	n/a	6_5_4	5.0	8	10.43343250034377	-1.0	100
110.804246	 n/a	5	5.0	6	n/a	n/a	n/a
110.805573	0.75	5	5.0	13	0.75	n/a	-20
111.5586491	0.75	5	5.0	13	0.75	n/a	140
112.3106301	0.75	5	5.0	13	0.75	n/a	-20
113.0639086	0.75	5	5.0	13	0.75	n/a	-20
113.8167766	0.75	5	5.0	13	0.75	n/a	20
114.5885371	1	5	5.0	9	n/a	n/a	100
114.5885371	1	5	5.0	10	n/a	n/a	Aversive Pruning
115.595681	n/a	5	5.0	7	n/a	n/a	17.25
116.520097	n/a	3	6.0	3	n/a	n/a	n/a
116.520097	9	3	6.0	4	n/a	n/a	9
125.5357696	2.5	3	6.0	5	n/a	n/a	2.5
126.1862835	n/a	5_3_0	6.0	8	9.666186499875039	1.0	-20
126.8520616	n/a	5_3_1	6.0	8	10.331964599899948	1.0	-40
127.1865968	n/a	5_3_2	6.0	8	10.666499800048767	1.0	100
128.0359604	 n/a	3	6.0	6	n/a	n/a	n/a
128.037094	0.75	3	6.0	13	0.75	n/a	-20
128.7892651	0.75	3	6.0	13	0.75	n/a	-20
129.5426035	0.75	3	6.0	13	0.75	n/a	140
130.3149397	1	3	6.0	9	n/a	n/a	100
130.3149397	1	3	6.0	10	n/a	n/a	ONLL Correct
131.3239325	n/a	3	6.0	7	n/a	n/a	15.75
132.2686915	n/a	3	7.0	3	n/a	n/a	n/a
132.2686915	9	3	7.0	4	n/a	n/a	9
141.2834125	2.5	3	7.0	5	n/a	n/a	2.5
141.9336128	n/a	3_3_0	7.0	8	9.664921300020069	1.0	-20
142.2673597	n/a	3_3_1	7.0	8	9.998668200336397	-1.0	0
142.5841679	n/a	3_3_2	7.0	8	10.315476400312038	1.0	-20
143.7834806	 n/a	3	7.0	6	n/a	n/a	n/a
143.7846071	0.75	3	7.0	13	0.75	n/a	-20
144.5374164	0.75	3	7.0	13	0.75	n/a	20
145.290187	0.75	3	7.0	13	0.75	n/a	-20
146.0662151	1	3	7.0	9	n/a	n/a	-20
146.0662151	1	3	7.0	10	n/a	n/a	Aversive Pruning
147.0719516	n/a	3	7.0	7	n/a	n/a	15.75
148.0159359	n/a	4	8.0	3	n/a	n/a	n/a
148.0159359	9	4	8.0	4	n/a	n/a	9
157.0315033	2.5	4	8.0	5	n/a	n/a	2.5
157.6315175	n/a	5_4_0	8.0	8	9.615581599995494	1.0	-20
158.1660126	n/a	5_4_1	8.0	8	10.150076699908825	1.0	-40
158.4814314	n/a	5_4_2	8.0	8	10.465495499782264	1.0	100
158.9151128	n/a	5_4_3	8.0	8	10.899176899809392	-1.0	30
159.548114	 n/a	4	8.0	6	n/a	n/a	n/a
159.5494849	0.75	4	8.0	13	0.75	n/a	-20
160.3027057	0.75	4	8.0	13	0.75	n/a	-20
161.0548622	0.75	4	8.0	13	0.75	n/a	140
161.8073813	0.75	4	8.0	13	0.75	n/a	-70
162.5767633	1	4	8.0	9	n/a	n/a	30
162.5767633	1	4	8.0	10	n/a	n/a	ONLL Error
163.5828828	n/a	4	8.0	7	n/a	n/a	16.5
164.5286698	n/a	3	9.0	3	n/a	n/a	n/a
164.5286698	9	3	9.0	4	n/a	n/a	9
173.529229	2.5	3	9.0	5	n/a	n/a	2.5
174.0134064	n/a	6_3_0	9.0	8	9.484736599959431	1.0	-20
174.8291103	n/a	6_3_1	9.0	8	10.300440500024708	1.0	120
175.2633056	n/a	6_3_2	9.0	8	10.734635799657552	-1.0	50
176.0462515	 n/a	3	9.0	6	n/a	n/a	n/a
176.0477881	0.75	3	9.0	13	0.75	n/a	-20
176.7996544	0.75	3	9.0	13	0.75	n/a	140
177.5525278	0.75	3	9.0	13	0.75	n/a	-70
178.3236948	1	3	9.0	9	n/a	n/a	50
178.3236948	1	3	9.0	10	n/a	n/a	ONLL Error
179.3307133	n/a	3	9.0	7	n/a	n/a	15.75
180.2766339	n/a	5	10.0	3	n/a	n/a	n/a
180.2766339	9	5	10.0	4	n/a	n/a	9
189.2776973	2.5	5	10.0	5	n/a	n/a	2.5
189.5444543	n/a	3_5_0	10.0	8	9.267820399720224	1.0	-20
189.9113179	n/a	3_5_1	10.0	8	9.63468399969861	1.0	-40
190.127887	n/a	3_5_2	10.0	8	9.851253099739553	1.0	-60
190.3608416	n/a	3_5_3	10.0	8	10.084207699634137	1.0	-80
190.5781859	n/a	3_5_4	10.0	8	10.301551999989897	1.0	60
191.7939894	 n/a	5	10.0	6	n/a	n/a	n/a
191.7958834	0.75	5	10.0	13	0.75	n/a	-20
192.5481637	0.75	5	10.0	13	0.75	n/a	-20
193.3009088	0.75	5	10.0	13	0.75	n/a	-20
194.0540579	0.75	5	10.0	13	0.75	n/a	-20
194.8063937	0.75	5	10.0	13	0.75	n/a	140
195.5744088	1	5	10.0	9	n/a	n/a	60
195.5744088	1	5	10.0	10	n/a	n/a	ONLL Correct
196.5815172	n/a	5	10.0	7	n/a	n/a	17.25
197.5266059	n/a	4	11.0	3	n/a	n/a	n/a
197.5266059	9	4	11.0	4	n/a	n/a	9
206.5414658	2.5	4	11.0	5	n/a	n/a	2.5
207.6755162	n/a	1_4_0	11.0	8	10.148910299874842	1.0	140
207.9428108	n/a	1_4_1	11.0	8	10.416204900015147	1.0	120
208.1596285	n/a	1_4_2	11.0	8	10.633022599853577	1.0	100
208.4265787	n/a	1_4_3	11.0	8	10.899972800165417	-1.0	120
209.0419241	 n/a	4	11.0	6	n/a	n/a	n/a
209.0435455	0.75	4	11.0	13	0.75	n/a	140
209.7967273	0.75	4	11.0	13	0.75	n/a	-20
210.548409	0.75	4	11.0	13	0.75	n/a	-20
211.3003747	0.75	4	11.0	13	0.75	n/a	20
212.0721216	1	4	11.0	9	n/a	n/a	120
212.0721216	1	4	11.0	10	n/a	n/a	Aversive Pruning
213.0803208	n/a	4	11.0	7	n/a	n/a	16.5
214.024794	n/a	4	12.0	3	n/a	n/a	n/a
214.024794	9	4	12.0	4	n/a	n/a	9
223.0396715	2.5	4	12.0	5	n/a	n/a	2.5
223.3739235	n/a	3_4_0	12.0	8	9.349129500333222	1.0	-20
223.6744487	n/a	3_4_1	12.0	8	9.649654700420797	1.0	-40
223.9576284	n/a	3_4_2	12.0	8	9.93283440032974	1.0	-60
224.3739346	n/a	3_4_3	12.0	8	10.349140600301324	1.0	-80
225.5563773	 n/a	4	12.0	6	n/a	n/a	n/a
225.5575144	0.75	4	12.0	13	0.75	n/a	-20
226.3101984	0.75	4	12.0	13	0.75	n/a	-20
227.0620685	0.75	4	12.0	13	0.75	n/a	-20
227.8142731	0.75	4	12.0	13	0.75	n/a	-20
228.5891692	1	4	12.0	9	n/a	n/a	-80
228.5891692	1	4	12.0	10	n/a	n/a	OLL Error
229.5979735	n/a	4	12.0	7	n/a	n/a	16.5
230.5222194	n/a	5	13.0	3	n/a	n/a	n/a
230.5222194	9	5	13.0	4	n/a	n/a	9
239.5379835	2.5	5	13.0	5	n/a	n/a	2.5
240.1050743	n/a	4_5_0	13.0	8	9.582854900043456	1.0	-20
240.3381915	n/a	4_5_1	13.0	8	9.815972100012004	1.0	-40
240.5389902	n/a	4_5_2	13.0	8	10.016770800109953	1.0	-60
240.7219554	n/a	4_5_3	13.0	8	10.199736000038683	1.0	80
240.9045867	n/a	4_5_4	13.0	8	10.382367299869657	1.0	60
242.053882	 n/a	5	13.0	6	n/a	n/a	n/a
242.055102	0.75	5	13.0	13	0.75	n/a	-20
242.8081396	0.75	5	13.0	13	0.75	n/a	-20
243.5597077	0.75	5	13.0	13	0.75	n/a	-20
244.3119512	0.75	5	13.0	13	0.75	n/a	140
245.0647817	0.75	5	13.0	13	0.75	n/a	-20
245.837478	1	5	13.0	9	n/a	n/a	60
245.837478	1	5	13.0	10	n/a	n/a	ONLL Correct
246.8450939	n/a	5	13.0	7	n/a	n/a	17.25
247.7697531	n/a	3	14.0	3	n/a	n/a	n/a
247.7697531	9	3	14.0	4	n/a	n/a	9
256.786007	2.5	3	14.0	5	n/a	n/a	2.5
257.1021805	n/a	2_3_0	14.0	8	9.332427400164306	1.0	-20
257.5192689	n/a	2_3_1	14.0	8	9.749515800271183	1.0	-40
257.8699634	n/a	2_3_2	14.0	8	10.100210300181061	-1.0	-20
259.3014412	 n/a	3	14.0	6	n/a	n/a	n/a
259.3038228	0.75	3	14.0	13	0.75	n/a	-20
260.0556884	0.75	3	14.0	13	0.75	n/a	-20
260.8080311	0.75	3	14.0	13	0.75	n/a	20
261.577838	1	3	14.0	9	n/a	n/a	-20
261.577838	1	3	14.0	10	n/a	n/a	Aversive Pruning
262.5839623	n/a	3	14.0	7	n/a	n/a	15.75
263.517847	n/a	3	15.0	3	n/a	n/a	n/a
263.517847	9	3	15.0	4	n/a	n/a	9
272.5345375	2.5	3	15.0	5	n/a	n/a	2.5
273.7503929	n/a	1_3_0	15.0	8	10.232545899692925	1.0	140
273.9995733	n/a	1_3_1	15.0	8	10.481726299971342	1.0	120
274.2173972	n/a	1_3_2	15.0	8	10.699550199788066	1.0	100
275.0500018	 n/a	3	15.0	6	n/a	n/a	n/a
275.05112	0.75	3	15.0	13	0.75	n/a	140
275.8038187	0.75	3	15.0	13	0.75	n/a	-20
276.5570145	0.75	3	15.0	13	0.75	n/a	-20
277.3306378	1	3	15.0	9	n/a	n/a	100
277.3306378	1	3	15.0	10	n/a	n/a	ONLL Correct
278.3369443	n/a	3	15.0	7	n/a	n/a	15.75
279.2661246	n/a	4	16.0	3	n/a	n/a	n/a
279.2661246	9	4	16.0	4	n/a	n/a	9
288.2811067	2.5	4	16.0	5	n/a	n/a	2.5
288.9815334	n/a	6_4_0	16.0	8	9.715408799704164	1.0	-20
289.4984246	n/a	6_4_1	16.0	8	10.232299999799581	1.0	120
289.8482486	n/a	6_4_2	16.0	8	10.582123999949543	1.0	100
290.1151488	n/a	6_4_3	16.0	8	10.84902419988066	1.0	80
290.7980588	 n/a	4	16.0	6	n/a	n/a	n/a
290.7995306	0.75	4	16.0	13	0.75	n/a	-20
291.5529693	0.75	4	16.0	13	0.75	n/a	140
292.305073	0.75	4	16.0	13	0.75	n/a	-20
293.0576664	0.75	4	16.0	13	0.75	n/a	-20
293.8322616	1	4	16.0	9	n/a	n/a	80
293.8322616	1	4	16.0	10	n/a	n/a	ONLL Correct
294.8375224	n/a	4	16.0	7	n/a	n/a	16.5
295.7788671	n/a	5	17.0	3	n/a	n/a	n/a
295.7788671	9	5	17.0	4	n/a	n/a	9
304.7790572	2.5	5	17.0	5	n/a	n/a	2.5
305.3128011	n/a	1_5_0	17.0	8	9.533933999948204	1.0	140
305.6298833	n/a	1_5_1	17.0	8	9.851016200147571	1.0	120
305.9470487	n/a	1_5_2	17.0	8	10.168181600049136	1.0	100
306.2119757	n/a	1_5_3	17.0	8	10.433108599856496	1.0	80
306.4128192	n/a	1_5_4	17.0	8	10.633952099829912	1.0	60
307.2962427	 n/a	5	17.0	6	n/a	n/a	n/a
307.2973117	0.75	5	17.0	13	0.75	n/a	140
308.0489419	0.75	5	17.0	13	0.75	n/a	-20
308.8000415	0.75	5	17.0	13	0.75	n/a	-20
309.5518642	0.75	5	17.0	13	0.75	n/a	-20
310.3031849	0.75	5	17.0	13	0.75	n/a	-20
311.0762575	1	5	17.0	9	n/a	n/a	60
311.0762575	1	5	17.0	10	n/a	n/a	OLL Error
312.0826767	n/a	5	17.0	7	n/a	n/a	17.25
313.026436	n/a	3	18.0	3	n/a	n/a	n/a
313.026436	9	3	18.0	4	n/a	n/a	9
322.0275326	2.5	3	18.0	5	n/a	n/a	2.5
322.6945446	n/a	2_3_0	18.0	8	9.668108599726109	1.0	-20
323.5605006	n/a	2_3_1	18.0	8	10.534064599778505	1.0	-40
324.4112583	n/a	2_3_2	18.0	8	11.384822299703956	1.0	-60
324.5437926	 n/a	3	18.0	6	n/a	n/a	n/a
324.5450077	0.75	3	18.0	13	0.75	n/a	-20
325.297315	0.75	3	18.0	13	0.75	n/a	-20
326.0503841	0.75	3	18.0	13	0.75	n/a	-20
326.8191395	1	3	18.0	9	n/a	n/a	-60
326.8191395	1	3	18.0	10	n/a	n/a	OLL Error
327.8275082	n/a	3	18.0	7	n/a	n/a	15.75
328.7769147	n/a	5	19.0	3	n/a	n/a	n/a
328.7769147	9	5	19.0	4	n/a	n/a	9
337.7915419	2.5	5	19.0	5	n/a	n/a	2.5
338.2262096	n/a	4_5_0	19.0	8	9.449294900055976	1.0	-20
338.592908	n/a	4_5_1	19.0	8	9.815993300173432	1.0	-40
338.941996	n/a	4_5_2	19.0	8	10.165081299841404	1.0	-60
339.2421003	n/a	4_5_3	19.0	8	10.465185599867254	1.0	80
339.6919435	n/a	4_5_4	19.0	8	10.915028799790887	1.0	60
340.3080941	 n/a	5	19.0	6	n/a	n/a	n/a
340.3091682	0.75	5	19.0	13	0.75	n/a	-20
341.0610764	0.75	5	19.0	13	0.75	n/a	-20
341.8135097	0.75	5	19.0	13	0.75	n/a	-20
342.5674105	0.75	5	19.0	13	0.75	n/a	140
343.3198843	0.75	5	19.0	13	0.75	n/a	-20
344.0894093	1	5	19.0	9	n/a	n/a	60
344.0894093	1	5	19.0	10	n/a	n/a	ONLL Correct
345.0958038	n/a	5	19.0	7	n/a	n/a	17.25
346.0247721	n/a	5	20.0	3	n/a	n/a	n/a
346.0247721	9	5	20.0	4	n/a	n/a	9
355.0393352	2.5	5	20.0	5	n/a	n/a	2.5
355.4068697	n/a	2_5_0	20.0	8	9.38209760002792	1.0	-20
355.6231126	n/a	2_5_1	20.0	8	9.598340499680491	1.0	-40
355.840072	n/a	2_5_2	20.0	8	9.815299899782984	1.0	-60
356.039753	n/a	2_5_3	20.0	8	10.014980899635704	1.0	-80
356.2235453	n/a	2_5_4	20.0	8	10.198773199692367	-1.0	-60
357.5561558	 n/a	5	20.0	6	n/a	n/a	n/a
357.5576811	0.75	5	20.0	13	0.75	n/a	-20
358.3112316	0.75	5	20.0	13	0.75	n/a	-20
359.0637483	0.75	5	20.0	13	0.75	n/a	-20
359.8154431	0.75	5	20.0	13	0.75	n/a	-20
360.5666476	0.75	5	20.0	13	0.75	n/a	20
361.3357404	1	5	20.0	9	n/a	n/a	-60
361.3357404	1	5	20.0	10	n/a	n/a	OLL Error
362.3435938	n/a	5	20.0	7	n/a	n/a	17.25
363.2713337	n/a	4	21.0	3	n/a	n/a	n/a
363.2713337	9	4	21.0	4	n/a	n/a	9
372.2881314	2.5	4	21.0	5	n/a	n/a	2.5
373.5050395	n/a	5_4_0	21.0	8	10.233705800026657	-1.0	-70
374.2882263	n/a	5_4_1	21.0	8	11.016892599873245	1.0	70
374.834152	1	4	21.0	9	n/a	n/a	-200
374.834152	1	4	21.0	10	n/a	n/a	Miss
375.840533	n/a	4	21.0	7	n/a	n/a	16.5
379.7686986	n/a	4	22.0	3	n/a	n/a	n/a
379.7686986	9	4	22.0	4	n/a	n/a	9
388.7689597	2.5	4	22.0	5	n/a	n/a	2.5
389.1020354	n/a	4_4_0	22.0	8	9.333336799871175	1.0	-20
389.3530879	n/a	4_4_1	22.0	8	9.584389299619943	-1.0	-90
389.5529047	n/a	4_4_2	22.0	8	9.784206099808218	1.0	50
389.7194346	n/a	4_4_3	22.0	8	9.950735999736937	-1.0	-20
391.2857636	 n/a	4	22.0	6	n/a	n/a	n/a
391.2879901	0.75	4	22.0	13	0.75	n/a	-20
392.0408892	0.75	4	22.0	13	0.75	n/a	-70
392.7938075	0.75	4	22.0	13	0.75	n/a	140
393.5467153	0.75	4	22.0	13	0.75	n/a	-70
394.3183836	1	4	22.0	9	n/a	n/a	-20
394.3183836	1	4	22.0	10	n/a	n/a	ONLL Error
395.3270657	n/a	4	22.0	7	n/a	n/a	16.5
396.267832	n/a	3	23.0	3	n/a	n/a	n/a
396.267832	9	3	23.0	4	n/a	n/a	9
405.2831167	2.5	3	23.0	5	n/a	n/a	2.5
405.8175708	n/a	6_3_0	23.0	8	9.549738800153136	1.0	-20
406.0845807	n/a	6_3_1	23.0	8	9.816748700104654	1.0	120
406.2831811	n/a	6_3_2	23.0	8	10.015349100343883	1.0	100
407.7999809	 n/a	3	23.0	6	n/a	n/a	n/a
407.801544	0.75	3	23.0	13	0.75	n/a	-20
408.5538936	0.75	3	23.0	13	0.75	n/a	140
409.3071853	0.75	3	23.0	13	0.75	n/a	-20
410.0781057	1	3	23.0	9	n/a	n/a	100
410.0781057	1	3	23.0	10	n/a	n/a	ONLL Correct
411.086003	n/a	3	23.0	7	n/a	n/a	15.75
412.0154358	n/a	4	24.0	3	n/a	n/a	n/a
412.0154358	9	4	24.0	4	n/a	n/a	9
421.0309439	2.5	4	24.0	5	n/a	n/a	2.5
421.431433	n/a	1_4_0	24.0	8	9.415997200179843	1.0	140
421.8649999	n/a	1_4_1	24.0	8	9.84956410015002	1.0	120
422.2483856	n/a	1_4_2	24.0	8	10.232949799858034	1.0	100
422.5487105	n/a	1_4_3	24.0	8	10.533274699933829	-1.0	120
423.5479546	 n/a	4	24.0	6	n/a	n/a	n/a
423.549365	0.75	4	24.0	13	0.75	n/a	140
424.3028742	0.75	4	24.0	13	0.75	n/a	-20
425.0549965	0.75	4	24.0	13	0.75	n/a	-20
425.8079271	0.75	4	24.0	13	0.75	n/a	20
426.5804906	1	4	24.0	9	n/a	n/a	120
426.5804906	1	4	24.0	10	n/a	n/a	Aversive Pruning
427.5886982	n/a	4	24.0	7	n/a	n/a	16.5
428.5144828	n/a	3	25.0	3	n/a	n/a	n/a
428.5144828	9	3	25.0	4	n/a	n/a	9
437.529051	2.5	3	25.0	5	n/a	n/a	2.5
437.9295107	n/a	4_3_0	25.0	8	9.415027900133284	1.0	-20
438.2467192	n/a	4_3_1	25.0	8	9.732236400246618	-1.0	-90
438.5130808	n/a	4_3_2	25.0	8	9.99859800003469	1.0	50
440.0460128	 n/a	3	25.0	6	n/a	n/a	n/a
440.0480876	0.75	3	25.0	13	0.75	n/a	-20
440.7997483	0.75	3	25.0	13	0.75	n/a	-70
441.5527235	0.75	3	25.0	13	0.75	n/a	140
442.3241104	1	3	25.0	9	n/a	n/a	50
442.3241104	1	3	25.0	10	n/a	n/a	OLL Correct
443.3300392	n/a	3	25.0	7	n/a	n/a	15.75
444.2765438	n/a	5	26.0	3	n/a	n/a	n/a
444.2765438	9	5	26.0	4	n/a	n/a	9
453.2773001	2.5	5	26.0	5	n/a	n/a	2.5
453.6437878	n/a	6_5_0	26.0	8	9.367244000080973	1.0	-20
453.8790429	n/a	6_5_1	26.0	8	9.602499100379648	1.0	120
454.0770917	n/a	6_5_2	26.0	8	9.800547900144009	1.0	100
454.2953058	n/a	6_5_3	26.0	8	10.018762000370769	1.0	80
454.4941695	n/a	6_5_4	26.0	8	10.217625699937344	-1.0	100
455.7932659	 n/a	5	26.0	6	n/a	n/a	n/a
455.7945652	0.75	5	26.0	13	0.75	n/a	-20
456.547982	0.75	5	26.0	13	0.75	n/a	140
457.2994507	0.75	5	26.0	13	0.75	n/a	-20
458.0529215	0.75	5	26.0	13	0.75	n/a	-20
458.8066057	0.75	5	26.0	13	0.75	n/a	20
459.5763862	1	5	26.0	9	n/a	n/a	100
459.5763862	1	5	26.0	10	n/a	n/a	Aversive Pruning
460.582776	n/a	5	26.0	7	n/a	n/a	17.25
461.5261444	n/a	3	27.0	3	n/a	n/a	n/a
461.5261444	9	3	27.0	4	n/a	n/a	9
470.5414676	2.5	3	27.0	5	n/a	n/a	2.5
471.0921165	n/a	5_3_0	27.0	8	9.565972100012004	1.0	-20
471.3586959	n/a	5_3_1	27.0	8	9.832551500294358	1.0	-40
471.5750673	n/a	5_3_2	27.0	8	10.048922900110485	1.0	100
473.0581837	 n/a	3	27.0	6	n/a	n/a	n/a
473.0592433	0.75	3	27.0	13	0.75	n/a	-20
473.8112464	0.75	3	27.0	13	0.75	n/a	-20
474.563584	0.75	3	27.0	13	0.75	n/a	140
475.3361792	1	3	27.0	9	n/a	n/a	100
475.3361792	1	3	27.0	10	n/a	n/a	ONLL Correct
476.341832	n/a	3	27.0	7	n/a	n/a	15.75
477.2743056	n/a	3	28.0	3	n/a	n/a	n/a
477.2743056	9	3	28.0	4	n/a	n/a	9
486.2890762	2.5	3	28.0	5	n/a	n/a	2.5
486.7072986	n/a	3_3_0	28.0	8	9.432993000373244	1.0	-20
486.9574921	n/a	3_3_1	28.0	8	9.68318650033325	-1.0	0
487.1740005	n/a	3_3_2	28.0	8	9.89969490002841	-1.0	-70
488.8066002	 n/a	3	28.0	6	n/a	n/a	n/a
488.8080164	0.75	3	28.0	13	0.75	n/a	-20
489.5596333	0.75	3	28.0	13	0.75	n/a	20
490.3137728	0.75	3	28.0	13	0.75	n/a	-70
491.0818198	1	3	28.0	9	n/a	n/a	-70
491.0818198	1	3	28.0	10	n/a	n/a	OLL Error
492.0890512	n/a	3	28.0	7	n/a	n/a	15.75
493.0219842	n/a	5	29.0	3	n/a	n/a	n/a
493.0219842	9	5	29.0	4	n/a	n/a	9
502.0376617	2.5	5	29.0	5	n/a	n/a	2.5
502.1211518	n/a	3_5_0	29.0	8	9.099167599808423	1.0	-20
502.5556759	n/a	3_5_1	29.0	8	9.533691700082274	1.0	-40
502.7879026	n/a	3_5_2	29.0	8	9.765918400138618	1.0	-60
502.9707464	n/a	3_5_3	29.0	8	9.94876219984144	1.0	-80
503.137942	n/a	3_5_4	29.0	8	10.115957799833268	1.0	60
504.5542138	 n/a	5	29.0	6	n/a	n/a	n/a
504.5556404	0.75	5	29.0	13	0.75	n/a	-20
505.3081203	0.75	5	29.0	13	0.75	n/a	-20
506.0599707	0.75	5	29.0	13	0.75	n/a	-20
506.8126539	0.75	5	29.0	13	0.75	n/a	-20
507.5645103	0.75	5	29.0	13	0.75	n/a	140
508.3371283	1	5	29.0	9	n/a	n/a	60
508.3371283	1	5	29.0	10	n/a	n/a	ONLL Correct
509.3432345	n/a	5	29.0	7	n/a	n/a	17.25
510.269753	n/a	5	30.0	3	n/a	n/a	n/a
510.269753	9	5	30.0	4	n/a	n/a	9
519.2857011	2.5	5	30.0	5	n/a	n/a	2.5
519.4695718	n/a	1_5_0	30.0	8	9.199818800203502	1.0	140
519.490703	n/a	1_5_1	30.0	8	9.22094999998808	1.0	120
519.7024471	n/a	1_5_2	30.0	8	9.432694100309165	1.0	100
519.9365626	n/a	1_5_3	30.0	8	9.666809600312265	1.0	80
520.3524813	n/a	1_5_4	30.0	8	10.082728300243618	-1.0	10
521.8017731	 n/a	5	30.0	6	n/a	n/a	n/a
521.8036854	0.75	5	30.0	13	0.75	n/a	140
522.5570404	0.75	5	30.0	13	0.75	n/a	-20
523.308425	0.75	5	30.0	13	0.75	n/a	-20
524.0605502	0.75	5	30.0	13	0.75	n/a	-20
524.8128408	0.75	5	30.0	13	0.75	n/a	-70
525.5866763	1	5	30.0	9	n/a	n/a	10
525.5866763	1	5	30.0	10	n/a	n/a	OLL Error
526.5916525	n/a	5	30.0	7	n/a	n/a	17.25
527.5175124	n/a	3	31.0	3	n/a	n/a	n/a
527.5175124	9	3	31.0	4	n/a	n/a	9
536.533719	2.5	3	31.0	5	n/a	n/a	2.5
537.0004025	n/a	1_3_0	31.0	8	9.482890099752693	1.0	140
537.7340319	n/a	1_3_1	31.0	8	10.216519499663264	1.0	120
538.1998081	n/a	1_3_2	31.0	8	10.682295699603856	1.0	100
539.049868	 n/a	3	31.0	6	n/a	n/a	n/a
539.0516227	0.75	3	31.0	13	0.75	n/a	140
539.8043847	0.75	3	31.0	13	0.75	n/a	-20
540.5565188	0.75	3	31.0	13	0.75	n/a	-20
541.3229123	1	3	31.0	9	n/a	n/a	100
541.3229123	1	3	31.0	10	n/a	n/a	ONLL Correct
542.3298562	n/a	3	31.0	7	n/a	n/a	15.75
543.2667121	n/a	4	32.0	3	n/a	n/a	n/a
543.2667121	9	4	32.0	4	n/a	n/a	9
552.2810054	2.5	4	32.0	5	n/a	n/a	2.5
553.0981376	n/a	6_4_0	32.0	8	9.83142550010234	1.0	-20
553.4487173	n/a	6_4_1	32.0	8	10.1820052000694	1.0	120
553.6319245	n/a	6_4_2	32.0	8	10.365212399978189	1.0	100
553.8324804	n/a	6_4_3	32.0	8	10.565768300089983	1.0	80
554.7978143	 n/a	4	32.0	6	n/a	n/a	n/a
554.7989309	0.75	4	32.0	13	0.75	n/a	-20
555.5508443	0.75	4	32.0	13	0.75	n/a	140
556.3040344	0.75	4	32.0	13	0.75	n/a	-20
557.0565613	0.75	4	32.0	13	0.75	n/a	-20
557.8274244	1	4	32.0	9	n/a	n/a	80
557.8274244	1	4	32.0	10	n/a	n/a	ONLL Correct
558.8333304	n/a	4	32.0	7	n/a	n/a	16.5
559.7781138	n/a	5	33.0	3	n/a	n/a	n/a
559.7781138	9	5	33.0	4	n/a	n/a	9
568.7793798	2.5	5	33.0	5	n/a	n/a	2.5
569.2130389	n/a	5_5_0	33.0	8	9.434925099834802	1.0	-20
569.4973581	n/a	5_5_1	33.0	8	9.719244299922137	1.0	-40
569.7471285	n/a	5_5_2	33.0	8	9.969014700036496	1.0	100
569.9956904	n/a	5_5_3	33.0	8	10.217576599679887	1.0	80
570.2795804	n/a	5_5_4	33.0	8	10.501466599758713	-1.0	10
571.2955081	 n/a	5	33.0	6	n/a	n/a	n/a
571.2984633	0.75	5	33.0	13	0.75	n/a	-20
572.0517021	0.75	5	33.0	13	0.75	n/a	-20
572.8036234	0.75	5	33.0	13	0.75	n/a	140
573.5581283	0.75	5	33.0	13	0.75	n/a	-20
574.3104607	0.75	5	33.0	13	0.75	n/a	-70
575.0793547	1	5	33.0	9	n/a	n/a	10
575.0793547	1	5	33.0	10	n/a	n/a	OLL Error
576.0864752	n/a	5	33.0	7	n/a	n/a	17.25
577.0260504	n/a	4	34.0	3	n/a	n/a	n/a
577.0260504	9	4	34.0	4	n/a	n/a	9
586.0276323	2.5	4	34.0	5	n/a	n/a	2.5
586.4442534	n/a	2_4_0	34.0	8	9.418202999979258	1.0	-20
586.74438	n/a	2_4_1	34.0	8	9.718329600058496	1.0	-40
587.0270713	n/a	2_4_2	34.0	8	10.001020899973811	1.0	-60
587.2607198	n/a	2_4_3	34.0	8	10.2346693999134	-1.0	-130
588.5436396	 n/a	4	34.0	6	n/a	n/a	n/a
588.5449039	0.75	4	34.0	13	0.75	n/a	-20
589.2981761	0.75	4	34.0	13	0.75	n/a	-20
590.0511662	0.75	4	34.0	13	0.75	n/a	-20
590.8035532	0.75	4	34.0	13	0.75	n/a	-70
591.5786278	1	4	34.0	9	n/a	n/a	-130
591.5786278	1	4	34.0	10	n/a	n/a	OLL Error
592.5850525	n/a	4	34.0	7	n/a	n/a	16.5
593.526373	n/a	4	35.0	3	n/a	n/a	n/a
593.526373	9	4	35.0	4	n/a	n/a	9
602.5409301	2.5	4	35.0	5	n/a	n/a	2.5
603.0764578	n/a	3_4_0	35.0	8	9.550084799993783	1.0	-20
603.6592801	n/a	3_4_1	35.0	8	10.132907100021841	1.0	-40
604.6918608	n/a	3_4_2	35.0	8	11.165487800259145	-1.0	-110
605.0081883	n/a	3_4_3	35.0	8	11.48181529995054	1.0	30
605.057664	 n/a	4	35.0	6	n/a	n/a	n/a
605.0604782	0.75	4	35.0	13	0.75	n/a	-20
605.8141724	0.75	4	35.0	13	0.75	n/a	-20
606.5671747	0.75	4	35.0	13	0.75	n/a	-70
607.3208528	0.75	4	35.0	13	0.75	n/a	140
608.0913617	1	4	35.0	9	n/a	n/a	30
608.0913617	1	4	35.0	10	n/a	n/a	OLL Correct
609.098767	n/a	4	35.0	7	n/a	n/a	16.5
610.0237982	n/a	4	36.0	3	n/a	n/a	n/a
610.0237982	9	4	36.0	4	n/a	n/a	9
619.0393276	2.5	4	36.0	5	n/a	n/a	2.5
619.9068457	n/a	3_4_0	36.0	8	9.883047500159591	1.0	-20
620.2227554	n/a	3_4_1	36.0	8	10.198957200162113	1.0	-40
620.8572295	n/a	3_4_2	36.0	8	10.833431300241498	-1.0	-110
621.0568574	n/a	3_4_3	36.0	8	11.033059200271964	1.0	30
621.5560241	 n/a	4	36.0	6	n/a	n/a	n/a
621.5571823	0.75	4	36.0	13	0.75	n/a	-20
622.3099862	0.75	4	36.0	13	0.75	n/a	-20
623.0624782	0.75	4	36.0	13	0.75	n/a	-70
623.8158085	0.75	4	36.0	13	0.75	n/a	140
624.5884182	1	4	36.0	9	n/a	n/a	30
624.5884182	1	4	36.0	10	n/a	n/a	OLL Correct
625.5954348	n/a	4	36.0	7	n/a	n/a	16.5
626.5218991	n/a	3	37.0	3	n/a	n/a	n/a
626.5218991	9	3	37.0	4	n/a	n/a	9
635.538272	2.5	3	37.0	5	n/a	n/a	2.5
636.2046648	n/a	2_3_0	37.0	8	9.682765699923037	-1.0	-70
637.5371682	n/a	2_3_1	37.0	8	11.015269100200383	-1.0	-140
638.0895318	1	3	37.0	9	n/a	n/a	-200
638.0895318	1	3	37.0	10	n/a	n/a	Miss
639.0953619	n/a	3	37.0	7	n/a	n/a	15.75
642.2691845	n/a	3	38.0	3	n/a	n/a	n/a
642.2691845	9	3	38.0	4	n/a	n/a	9
651.2851934	2.5	3	38.0	5	n/a	n/a	2.5
651.569042	n/a	6_3_0	38.0	8	9.29985750000924	1.0	-20
651.8690774	n/a	6_3_1	38.0	8	9.599892899859695	1.0	120
652.8192458	n/a	6_3_2	38.0	8	10.550061299931258	1.0	100
653.7855158	 n/a	3	38.0	6	n/a	n/a	n/a
653.7873771	0.75	3	38.0	13	0.75	n/a	-20
654.5401595	0.75	3	38.0	13	0.75	n/a	140
655.292326	0.75	3	38.0	13	0.75	n/a	-20
656.0657454	1	3	38.0	9	n/a	n/a	100
656.0657454	1	3	38.0	10	n/a	n/a	ONLL Correct
657.0727826	n/a	3	38.0	7	n/a	n/a	15.75
658.0178726	n/a	5	39.0	3	n/a	n/a	n/a
658.0178726	9	5	39.0	4	n/a	n/a	9
667.0322353	2.5	5	39.0	5	n/a	n/a	2.5
667.4672189	n/a	5_5_0	39.0	8	9.449346300214527	-1.0	-70
667.9846373	n/a	5_5_1	39.0	8	9.966764700133352	1.0	70
668.5495918	n/a	5_5_2	39.0	8	10.53171919984743	-1.0	0
668.9181638	n/a	5_5_3	39.0	8	10.900291200261565	1.0	-20
669.233561	n/a	5_5_4	39.0	8	11.215688399970533	-1.0	0
669.5334471	 n/a	5	39.0	6	n/a	n/a	n/a
669.5346932	0.75	5	39.0	13	0.75	n/a	-70
670.2870339	0.75	5	39.0	13	0.75	n/a	140
671.0405925	0.75	5	39.0	13	0.75	n/a	-70
671.7928488	0.75	5	39.0	13	0.75	n/a	-20
672.545024	0.75	5	39.0	13	0.75	n/a	20
673.3142218	1	5	39.0	9	n/a	n/a	0
673.3142218	1	5	39.0	10	n/a	n/a	OLL Error
674.3210007	n/a	5	39.0	7	n/a	n/a	17.25
675.266308	n/a	5	40.0	3	n/a	n/a	n/a
675.266308	9	5	40.0	4	n/a	n/a	9
684.2808295	2.5	5	40.0	5	n/a	n/a	2.5
685.0303356	n/a	1_5_0	40.0	8	9.764027600176632	1.0	140
685.2976709	n/a	1_5_1	40.0	8	10.031362900044767	1.0	120
685.4996864	n/a	1_5_2	40.0	8	10.233378400094807	1.0	100
685.7148752	n/a	1_5_3	40.0	8	10.448567199986428	-1.0	120
685.948449	n/a	1_5_4	40.0	8	10.682140999939293	1.0	100
686.7982816	 n/a	5	40.0	6	n/a	n/a	n/a
686.7998293	0.75	5	40.0	13	0.75	n/a	140
687.5537976	0.75	5	40.0	13	0.75	n/a	-20
688.3055591	0.75	5	40.0	13	0.75	n/a	-20
689.0579785	0.75	5	40.0	13	0.75	n/a	20
689.8107085	0.75	5	40.0	13	0.75	n/a	-20
690.5786011	1	5	40.0	9	n/a	n/a	100
690.5786011	1	5	40.0	10	n/a	n/a	OLL Error
691.5868259	n/a	5	40.0	7	n/a	n/a	17.25
692.5139616	n/a	4	41.0	3	n/a	n/a	n/a
692.5139616	9	4	41.0	4	n/a	n/a	9
701.5296797	2.5	4	41.0	5	n/a	n/a	2.5
701.8126685	n/a	4_4_0	41.0	8	9.298706899862736	1.0	-20
702.1295343	n/a	4_4_1	41.0	8	9.615572699811311	1.0	-40
702.4450409	n/a	4_4_2	41.0	8	9.931079299654813	1.0	-60
702.7288219	n/a	4_4_3	41.0	8	10.214860299602153	-1.0	-40
704.0455599	 n/a	4	41.0	6	n/a	n/a	n/a
704.0472298	0.75	4	41.0	13	0.75	n/a	-20
704.798909	0.75	4	41.0	13	0.75	n/a	-20
705.5507514	0.75	4	41.0	13	0.75	n/a	-20
706.3031605	0.75	4	41.0	13	0.75	n/a	20
707.0780145	1	4	41.0	9	n/a	n/a	-40
707.0780145	1	4	41.0	10	n/a	n/a	ONLL Error
708.0855868	n/a	4	41.0	7	n/a	n/a	16.5
709.0281789	n/a	5	42.0	3	n/a	n/a	n/a
709.0281789	9	5	42.0	4	n/a	n/a	9
718.043863	2.5	5	42.0	5	n/a	n/a	2.5
718.5273464	n/a	2_5_0	42.0	8	9.499167500063775	1.0	-20
718.7949851	n/a	2_5_1	42.0	8	9.766806200146677	1.0	-40
719.3630522	n/a	2_5_2	42.0	8	10.334873300045727	-1.0	-20
719.8941041	n/a	2_5_3	42.0	8	10.865925199817868	-1.0	-90
720.5102931	n/a	2_5_4	42.0	8	11.48211420001462	1.0	-110
720.559948	 n/a	5	42.0	6	n/a	n/a	n/a
720.5610367	0.75	5	42.0	13	0.75	n/a	-20
721.3132649	0.75	5	42.0	13	0.75	n/a	-20
722.0653194	0.75	5	42.0	13	0.75	n/a	20
722.8183211	0.75	5	42.0	13	0.75	n/a	-70
723.5703727	0.75	5	42.0	13	0.75	n/a	-20
724.344089	1	5	42.0	9	n/a	n/a	-110
724.344089	1	5	42.0	10	n/a	n/a	OLL Error
725.3494806	n/a	5	42.0	7	n/a	n/a	17.25
726.2763141	n/a	4	43.0	3	n/a	n/a	n/a
726.2763141	9	4	43.0	4	n/a	n/a	9
735.2909437	2.5	4	43.0	5	n/a	n/a	2.5
736.2756101	n/a	1_4_0	43.0	8	9.999296000227332	1.0	140
736.9589657	n/a	1_4_1	43.0	8	10.682651600334793	1.0	120
737.5747823	n/a	1_4_2	43.0	8	11.298468200024214	-1.0	50
737.8477131	1	4	43.0	9	n/a	n/a	-200
737.8477131	1	4	43.0	10	n/a	n/a	Miss
738.8550653	n/a	4	43.0	7	n/a	n/a	16.5
742.7738048	n/a	3	44.0	3	n/a	n/a	n/a
742.7738048	9	3	44.0	4	n/a	n/a	9
751.7898078	2.5	3	44.0	5	n/a	n/a	2.5
752.2231942	n/a	3_3_0	44.0	8	9.449389399960637	1.0	-20
752.6900274	n/a	3_3_1	44.0	8	9.916222599800676	1.0	-40
753.0226498	n/a	3_3_2	44.0	8	10.248844999819994	-1.0	-110
754.305857	 n/a	3	44.0	6	n/a	n/a	n/a
754.3080349	0.75	3	44.0	13	0.75	n/a	-20
755.0597312	0.75	3	44.0	13	0.75	n/a	-20
755.8131026	0.75	3	44.0	13	0.75	n/a	-70
756.5825861	1	3	44.0	9	n/a	n/a	-110
756.5825861	1	3	44.0	10	n/a	n/a	OLL Error
757.587941	n/a	3	44.0	7	n/a	n/a	15.75
758.521312	n/a	4	45.0	3	n/a	n/a	n/a
758.521312	9	4	45.0	4	n/a	n/a	9
767.5373774	2.5	4	45.0	5	n/a	n/a	2.5
767.9707383	n/a	5_4_0	45.0	8	9.449426300358027	1.0	-20
768.3044818	n/a	5_4_1	45.0	8	9.783169800415637	1.0	-40
768.6882001	n/a	5_4_2	45.0	8	10.166888100095091	1.0	100
769.0214595	n/a	5_4_3	45.0	8	10.5001475000754	-1.0	30
770.053387	 n/a	4	45.0	6	n/a	n/a	n/a
770.0546625	0.75	4	45.0	13	0.75	n/a	-20
770.8078777	0.75	4	45.0	13	0.75	n/a	-20
771.5610512	0.75	4	45.0	13	0.75	n/a	140
772.3134313	0.75	4	45.0	13	0.75	n/a	-70
773.082499	1	4	45.0	9	n/a	n/a	30
773.082499	1	4	45.0	10	n/a	n/a	ONLL Error
774.0884442	n/a	4	45.0	7	n/a	n/a	16.5
775.0201403	n/a	5	46.0	3	n/a	n/a	n/a
775.0201403	9	5	46.0	4	n/a	n/a	9
784.0355274	2.5	5	46.0	5	n/a	n/a	2.5
784.8350295	n/a	3_5_0	46.0	8	9.814889200031756	1.0	-20
785.302788	n/a	3_5_1	46.0	8	10.282647700048985	1.0	-40
785.8189095	n/a	3_5_2	46.0	8	10.798769199755045	1.0	-60
786.0177392	n/a	3_5_3	46.0	8	10.997598899994042	-1.0	-40
786.2843128	n/a	3_5_4	46.0	8	11.264172499999404	-1.0	-110
786.5356279	 n/a	5	46.0	6	n/a	n/a	n/a
786.5371704	0.75	5	46.0	13	0.75	n/a	-20
787.2903893	0.75	5	46.0	13	0.75	n/a	-20
788.0420676	0.75	5	46.0	13	0.75	n/a	-20
788.7947677	0.75	5	46.0	13	0.75	n/a	20
789.5481923	0.75	5	46.0	13	0.75	n/a	-70
790.3196551	1	5	46.0	9	n/a	n/a	-110
790.3196551	1	5	46.0	10	n/a	n/a	ONLL Error
791.3264662	n/a	5	46.0	7	n/a	n/a	17.25
792.2672819	n/a	5	47.0	3	n/a	n/a	n/a
792.2672819	9	5	47.0	4	n/a	n/a	9
801.2824683	2.5	5	47.0	5	n/a	n/a	2.5
801.5997374	n/a	6_5_0	47.0	8	9.332455499563368	1.0	-20
802.2340528	n/a	6_5_1	47.0	8	9.966770899947733	1.0	120
802.8163463	n/a	6_5_2	47.0	8	10.549064399674537	1.0	100
803.367152	n/a	6_5_3	47.0	8	11.099870099686086	1.0	80
803.8176468	1	5	47.0	9	n/a	n/a	-200
803.8176468	1	5	47.0	10	n/a	n/a	Miss
804.8253437	n/a	5	47.0	7	n/a	n/a	17.25
809.5150416	n/a	3	48.0	3	n/a	n/a	n/a
809.5150416	9	3	48.0	4	n/a	n/a	9
818.5305151	2.5	3	48.0	5	n/a	n/a	2.5
818.9484801	n/a	1_3_0	48.0	8	9.433438499923797	1.0	140
819.1986067	n/a	1_3_1	48.0	8	9.683565100189297	1.0	120
819.4148482	n/a	1_3_2	48.0	8	9.89980660006404	1.0	100
821.0469491	 n/a	3	48.0	6	n/a	n/a	n/a
821.0480392	0.75	3	48.0	13	0.75	n/a	140
821.8004083	0.75	3	48.0	13	0.75	n/a	-20
822.5515195	0.75	3	48.0	13	0.75	n/a	-20
823.322416	1	3	48.0	9	n/a	n/a	100
823.322416	1	3	48.0	10	n/a	n/a	ONLL Correct
824.328164	n/a	3	48.0	7	n/a	n/a	15.75
825.2776275	n/a	4	49.0	3	n/a	n/a	n/a
825.2776275	9	4	49.0	4	n/a	n/a	9
834.2790905	2.5	4	49.0	5	n/a	n/a	2.5
834.5790665	n/a	6_4_0	49.0	8	9.301439000293614	1.0	-20
834.7964154	n/a	6_4_1	49.0	8	9.518787899985911	1.0	120
835.1293475	n/a	6_4_2	49.0	8	9.851720000151543	-1.0	50
835.3798972	n/a	6_4_3	49.0	8	10.102269700262696	1.0	30
836.7958264	 n/a	4	49.0	6	n/a	n/a	n/a
836.7980794	0.75	4	49.0	13	0.75	n/a	-20
837.550408	0.75	4	49.0	13	0.75	n/a	140
838.3034141	0.75	4	49.0	13	0.75	n/a	-70
839.0552219	0.75	4	49.0	13	0.75	n/a	-20
839.825035	1	4	49.0	9	n/a	n/a	30
839.825035	1	4	49.0	10	n/a	n/a	ONLL Error
840.8327584	n/a	4	49.0	7	n/a	n/a	16.5
841.7785307	n/a	4	50.0	3	n/a	n/a	n/a
841.7785307	9	4	50.0	4	n/a	n/a	9
850.7936718	2.5	4	50.0	5	n/a	n/a	2.5
851.2113978	n/a	2_4_0	50.0	8	9.432867099996656	1.0	-20
851.5296696	n/a	2_4_1	50.0	8	9.751138899940996	1.0	-40
851.7938354	n/a	2_4_2	50.0	8	10.015304700005801	1.0	-60
852.0606406	n/a	2_4_3	50.0	8	10.28210989991203	1.0	-80
853.3093757	 n/a	4	50.0	6	n/a	n/a	n/a
853.3104455	0.75	4	50.0	13	0.75	n/a	-20
854.064603	0.75	4	50.0	13	0.75	n/a	-20
854.8171893	0.75	4	50.0	13	0.75	n/a	-20
855.5703648	0.75	4	50.0	13	0.75	n/a	-20
856.3416466	1	4	50.0	9	n/a	n/a	-80
856.3416466	1	4	50.0	10	n/a	n/a	OLL Error
857.3482389	n/a	4	50.0	7	n/a	n/a	16.5
858.2760126	n/a	5	51.0	3	n/a	n/a	n/a
858.2760126	9	5	51.0	4	n/a	n/a	9
867.2906598	2.5	5	51.0	5	n/a	n/a	2.5
867.7754736	n/a	4_5_0	51.0	8	9.499460999853907	1.0	-20
868.2249705	n/a	4_5_1	51.0	8	9.948957900051028	1.0	-40
868.6589226	n/a	4_5_2	51.0	8	10.382910000160336	1.0	-60
869.1086537	n/a	4_5_3	51.0	8	10.832641100045292	1.0	80
869.5754055	n/a	4_5_4	51.0	8	11.299392899964007	-1.0	10
869.7915508	 n/a	5	51.0	6	n/a	n/a	n/a
869.7929865	0.75	5	51.0	13	0.75	n/a	-20
870.5455478	0.75	5	51.0	13	0.75	n/a	-20
871.299161	0.75	5	51.0	13	0.75	n/a	-20
872.0509945	0.75	5	51.0	13	0.75	n/a	140
872.8037702	0.75	5	51.0	13	0.75	n/a	-70
873.5784158	1	5	51.0	9	n/a	n/a	10
873.5784158	1	5	51.0	10	n/a	n/a	ONLL Error
874.5857681	n/a	5	51.0	7	n/a	n/a	17.25
875.523435	n/a	3	52.0	3	n/a	n/a	n/a
875.523435	9	3	52.0	4	n/a	n/a	9
884.5393335	2.5	3	52.0	5	n/a	n/a	2.5
885.0225709	n/a	4_3_0	52.0	8	9.49913590028882	1.0	-20
885.3398813	n/a	4_3_1	52.0	8	9.816446300130336	-1.0	-90
885.6235325	n/a	4_3_2	52.0	8	10.100097500253467	1.0	50
887.0555924	 n/a	3	52.0	6	n/a	n/a	n/a
887.0577143	0.75	3	52.0	13	0.75	n/a	-20
887.8101681	0.75	3	52.0	13	0.75	n/a	-70
888.5614371	0.75	3	52.0	13	0.75	n/a	140
889.3348139	1	3	52.0	9	n/a	n/a	50
889.3348139	1	3	52.0	10	n/a	n/a	OLL Correct
890.3421793	n/a	3	52.0	7	n/a	n/a	15.75
891.2718845	n/a	3	53.0	3	n/a	n/a	n/a
891.2718845	9	3	53.0	4	n/a	n/a	9
900.2878883	2.5	3	53.0	5	n/a	n/a	2.5
900.787947	n/a	5_3_0	53.0	8	9.516062499955297	-1.0	-70
901.1037357	n/a	5_3_1	53.0	8	9.831851199734958	1.0	70
901.4379647	n/a	5_3_2	53.0	8	10.166080200113354	1.0	50
902.8031815	 n/a	3	53.0	6	n/a	n/a	n/a
902.8047692	0.75	3	53.0	13	0.75	n/a	-70
903.5578771	0.75	3	53.0	13	0.75	n/a	140
904.3111575	0.75	3	53.0	13	0.75	n/a	-20
905.0858124	1	3	53.0	9	n/a	n/a	50
905.0858124	1	3	53.0	10	n/a	n/a	ONLL Error
906.0939762	n/a	3	53.0	7	n/a	n/a	15.75
907.0190041	n/a	4	54.0	3	n/a	n/a	n/a
907.0190041	9	4	54.0	4	n/a	n/a	9
916.0357194	2.5	4	54.0	5	n/a	n/a	2.5
916.4186639	n/a	3_4_0	54.0	8	9.399659799877554	1.0	-20
916.752039	n/a	3_4_1	54.0	8	9.733034899923949	1.0	-40
917.0185831	n/a	3_4_2	54.0	8	9.999578999821095	-1.0	-110
917.1691168	n/a	3_4_3	54.0	8	10.150112699717283	1.0	30
918.5511924	 n/a	4	54.0	6	n/a	n/a	n/a
918.552553	0.75	4	54.0	13	0.75	n/a	-20
919.3049742	0.75	4	54.0	13	0.75	n/a	-20
920.0582539	0.75	4	54.0	13	0.75	n/a	-70
920.810697	0.75	4	54.0	13	0.75	n/a	140
921.5841496	1	4	54.0	9	n/a	n/a	30
921.5841496	1	4	54.0	10	n/a	n/a	OLL Correct
922.5914783	n/a	4	54.0	7	n/a	n/a	16.5
923.5175659	n/a	3	55.0	3	n/a	n/a	n/a
923.5175659	9	3	55.0	4	n/a	n/a	9
932.5326686	2.5	3	55.0	5	n/a	n/a	2.5
933.050422	n/a	2_3_0	55.0	8	9.532856099773197	1.0	-20
933.3993972	n/a	2_3_1	55.0	8	9.88183129997924	1.0	-40
933.6333452	n/a	2_3_2	55.0	8	10.115779299754651	-1.0	-20
935.0495275	 n/a	3	55.0	6	n/a	n/a	n/a
935.0513736	0.75	3	55.0	13	0.75	n/a	-20
935.8050812	0.75	3	55.0	13	0.75	n/a	-20
936.5575457	0.75	3	55.0	13	0.75	n/a	20
937.3296489	1	3	55.0	9	n/a	n/a	-20
937.3296489	1	3	55.0	10	n/a	n/a	Aversive Pruning
938.3371902	n/a	3	55.0	7	n/a	n/a	15.75
939.2667807	n/a	3	56.0	3	n/a	n/a	n/a
939.2667807	9	3	56.0	4	n/a	n/a	9
948.2811913	2.5	3	56.0	5	n/a	n/a	2.5
948.8813733	n/a	6_3_0	56.0	8	9.61459259968251	1.0	-20
949.5309889	n/a	6_3_1	56.0	8	10.264208199921997	1.0	120
950.5813188	n/a	6_3_2	56.0	8	11.314538099803029	1.0	100
950.7812741	 n/a	3	56.0	6	n/a	n/a	n/a
950.7828057	0.75	3	56.0	13	0.75	n/a	-20
951.5362576	0.75	3	56.0	13	0.75	n/a	140
952.288218	0.75	3	56.0	13	0.75	n/a	-20
953.0581678	1	3	56.0	9	n/a	n/a	100
953.0581678	1	3	56.0	10	n/a	n/a	ONLL Correct
954.0656809	n/a	3	56.0	7	n/a	n/a	15.75
955.0279753	n/a	5	57.0	3	n/a	n/a	n/a
955.0279753	9	5	57.0	4	n/a	n/a	9
964.0292009	2.5	5	57.0	5	n/a	n/a	2.5
964.3127174	n/a	5_5_0	57.0	8	9.284742100164292	1.0	-20
964.6132084	n/a	5_5_1	57.0	8	9.585233100224288	1.0	-40
965.1122582	n/a	5_5_2	57.0	8	10.084282900206745	1.0	100
965.328573	n/a	5_5_3	57.0	8	10.300597700290384	1.0	80
965.4805983	n/a	5_5_4	57.0	8	10.452622999902816	1.0	60
966.5453805	 n/a	5	57.0	6	n/a	n/a	n/a
966.5467784	0.75	5	57.0	13	0.75	n/a	-20
967.2992351	0.75	5	57.0	13	0.75	n/a	-20
968.0507456	0.75	5	57.0	13	0.75	n/a	140
968.8039262	0.75	5	57.0	13	0.75	n/a	-20
969.5588558	0.75	5	57.0	13	0.75	n/a	-20
970.3343994	1	5	57.0	9	n/a	n/a	60
970.3343994	1	5	57.0	10	n/a	n/a	Aversive Pruning
971.3421368	n/a	5	57.0	7	n/a	n/a	17.25
972.2778794	n/a	5	58.0	3	n/a	n/a	n/a
972.2778794	9	5	58.0	4	n/a	n/a	9
981.2933131	2.5	5	58.0	5	n/a	n/a	2.5
981.844214	n/a	1_5_0	58.0	8	9.566334599629043	1.0	140
982.5595999	n/a	1_5_1	58.0	8	10.281720499973744	1.0	120
982.8780264	n/a	1_5_2	58.0	8	10.600146999582648	1.0	100
983.409785	n/a	1_5_3	58.0	8	11.131905599962918	1.0	80
983.6436932	n/a	1_5_4	58.0	8	11.365813799668105	-1.0	10
983.8096874	 n/a	5	58.0	6	n/a	n/a	n/a
983.8108333	0.75	5	58.0	13	0.75	n/a	140
984.5625803	0.75	5	58.0	13	0.75	n/a	-20
985.315008	0.75	5	58.0	13	0.75	n/a	-20
986.0671141	0.75	5	58.0	13	0.75	n/a	-20
986.8187843	0.75	5	58.0	13	0.75	n/a	-70
987.5944358	1	5	58.0	9	n/a	n/a	10
987.5944358	1	5	58.0	10	n/a	n/a	OLL Error
988.5997754	n/a	5	58.0	7	n/a	n/a	17.25
989.5258682	n/a	5	59.0	3	n/a	n/a	n/a
989.5258682	9	5	59.0	4	n/a	n/a	9
998.5410222	2.5	5	59.0	5	n/a	n/a	2.5
998.908541	n/a	2_5_0	59.0	8	9.382672800216824	1.0	-20
999.1584907	n/a	2_5_1	59.0	8	9.63262249995023	1.0	-40
999.4585903	n/a	2_5_2	59.0	8	9.932722100056706	1.0	-60
999.7251253	n/a	2_5_3	59.0	8	10.199257100000976	1.0	-80
1000.4251594	n/a	2_5_4	59.0	8	10.899291200097652	1.0	-100
1001.0576171	 n/a	5	59.0	6	n/a	n/a	n/a
1001.0587152	0.75	5	59.0	13	0.75	n/a	-20
1001.811566	0.75	5	59.0	13	0.75	n/a	-20
1002.5648266	0.75	5	59.0	13	0.75	n/a	-20
1003.3189262	0.75	5	59.0	13	0.75	n/a	-20
1004.0707893	0.75	5	59.0	13	0.75	n/a	-20
1004.8421687	1	5	59.0	9	n/a	n/a	-100
1004.8421687	1	5	59.0	10	n/a	n/a	OLL Error
1005.8480346	n/a	5	59.0	7	n/a	n/a	17.25
1006.7731221	n/a	5	60.0	3	n/a	n/a	n/a
1006.7731221	9	5	60.0	4	n/a	n/a	9
1015.7890218	2.5	5	60.0	5	n/a	n/a	2.5
1017.3066413	n/a	3_5_0	60.0	8	10.53351919958368	1.0	-20
1017.5390704	n/a	3_5_1	60.0	8	10.765948299784212	1.0	-40
1017.722286	n/a	3_5_2	60.0	8	10.949163899756966	1.0	-60
1017.8730683	n/a	3_5_3	60.0	8	11.099946199916305	1.0	-80
1018.0388479	n/a	3_5_4	60.0	8	11.265725799836217	1.0	60
1018.3058053	 n/a	5	60.0	6	n/a	n/a	n/a
1018.3085726	0.75	5	60.0	13	0.75	n/a	-20
1019.0606579	0.75	5	60.0	13	0.75	n/a	-20
1019.812881	0.75	5	60.0	13	0.75	n/a	-20
1020.5669456	0.75	5	60.0	13	0.75	n/a	-20
1021.318891	0.75	5	60.0	13	0.75	n/a	140
1022.090497	1	5	60.0	9	n/a	n/a	60
1022.090497	1	5	60.0	10	n/a	n/a	ONLL Correct
1023.0976714	n/a	5	60.0	7	n/a	n/a	17.25
1024.0211315	n/a	4	61.0	3	n/a	n/a	n/a
1024.0211315	9	4	61.0	4	n/a	n/a	9
1033.0369126	2.5	4	61.0	5	n/a	n/a	2.5
1034.7040144	n/a	1_4_0	61.0	8	10.682882899884136	1.0	140
1035.1037861	n/a	1_4_1	61.0	8	11.082654600031674	1.0	120
1035.3537184	n/a	1_4_2	61.0	8	11.33258689986542	1.0	100
1035.5721061	1	4	61.0	9	n/a	n/a	-200
1035.5721061	1	4	61.0	10	n/a	n/a	Miss
1036.5791216	n/a	4	61.0	7	n/a	n/a	16.5
1040.5186195	n/a	3	62.0	3	n/a	n/a	n/a
1040.5186195	9	3	62.0	4	n/a	n/a	9
1049.5352227	2.5	3	62.0	5	n/a	n/a	2.5
1050.2012191	n/a	3_3_0	62.0	8	9.68259959993884	1.0	-20
1050.6188123	n/a	3_3_1	62.0	8	10.10019279969856	1.0	-40
1050.8852383	n/a	3_3_2	62.0	8	10.366618799977003	1.0	-60
1052.0511996	 n/a	3	62.0	6	n/a	n/a	n/a
1052.0526573	0.75	3	62.0	13	0.75	n/a	-20
1052.80476	0.75	3	62.0	13	0.75	n/a	-20
1053.5574915	0.75	3	62.0	13	0.75	n/a	-20
1054.3325296	1	3	62.0	9	n/a	n/a	-60
1054.3325296	1	3	62.0	10	n/a	n/a	OLL Error
1055.337916	n/a	3	62.0	7	n/a	n/a	15.75
1056.2675391	n/a	4	63.0	3	n/a	n/a	n/a
1056.2675391	9	4	63.0	4	n/a	n/a	9
1065.2827272	2.5	4	63.0	5	n/a	n/a	2.5
1066.4495529	n/a	4_4_0	63.0	8	10.182013800367713	1.0	-20
1066.6168886	n/a	4_4_1	63.0	8	10.349349500145763	1.0	-40
1066.8003157	n/a	4_4_2	63.0	8	10.532776600215584	1.0	-60
1066.9671425	n/a	4_4_3	63.0	8	10.699603400193157	1.0	80
1067.7992591	 n/a	4	63.0	6	n/a	n/a	n/a
1067.8007113	0.75	4	63.0	13	0.75	n/a	-20
1068.5528347	0.75	4	63.0	13	0.75	n/a	-20
1069.3054678	0.75	4	63.0	13	0.75	n/a	-20
1070.0584435	0.75	4	63.0	13	0.75	n/a	140
1070.8302062	1	4	63.0	9	n/a	n/a	80
1070.8302062	1	4	63.0	10	n/a	n/a	ONLL Correct
1071.8379317	n/a	4	63.0	7	n/a	n/a	16.5
1072.7652379	n/a	3	64.0	3	n/a	n/a	n/a
1072.7652379	9	3	64.0	4	n/a	n/a	9
1081.780748	2.5	3	64.0	5	n/a	n/a	2.5
1082.2488088	n/a	4_3_0	64.0	8	9.483570899814367	1.0	-20
1082.7808203	n/a	4_3_1	64.0	8	10.015582399908453	-1.0	-90
1083.0476822	n/a	4_3_2	64.0	8	10.28244430013001	1.0	50
1084.2976052	 n/a	3	64.0	6	n/a	n/a	n/a
1084.2986669	0.75	3	64.0	13	0.75	n/a	-20
1085.0510178	0.75	3	64.0	13	0.75	n/a	-70
1085.8024384	0.75	3	64.0	13	0.75	n/a	140
1086.5715975	1	3	64.0	9	n/a	n/a	50
1086.5715975	1	3	64.0	10	n/a	n/a	OLL Correct
1087.5785503	n/a	3	64.0	7	n/a	n/a	15.75
1088.5278004	n/a	4	65.0	3	n/a	n/a	n/a
1088.5278004	9	4	65.0	4	n/a	n/a	9
1097.5286343	2.5	4	65.0	5	n/a	n/a	2.5
1097.8297912	n/a	5_4_0	65.0	8	9.301990800071508	1.0	-20
1098.1288758	n/a	5_4_1	65.0	8	9.601075400132686	1.0	-40
1098.3620125	n/a	5_4_2	65.0	8	9.834212100133302	1.0	100
1098.5122548	n/a	5_4_3	65.0	8	9.9844543999061	1.0	80
1100.0452137	 n/a	4	65.0	6	n/a	n/a	n/a
1100.0465551	0.75	4	65.0	13	0.75	n/a	-20
1100.7991073	0.75	4	65.0	13	0.75	n/a	-20
1101.5511757	0.75	4	65.0	13	0.75	n/a	140
1102.3048974	0.75	4	65.0	13	0.75	n/a	-20
1103.0757799	1	4	65.0	9	n/a	n/a	80
1103.0757799	1	4	65.0	10	n/a	n/a	ONLL Correct
1104.0827652	n/a	4	65.0	7	n/a	n/a	16.5
1105.0279111	n/a	5	66.0	3	n/a	n/a	n/a
1105.0279111	9	5	66.0	4	n/a	n/a	9
1114.0431826	2.5	5	66.0	5	n/a	n/a	2.5
1114.4437875	n/a	6_5_0	66.0	8	9.415876399725676	1.0	-20
1114.6773189	n/a	6_5_1	66.0	8	9.649407799821349	1.0	120
1114.9431885	n/a	6_5_2	66.0	8	9.915277400054038	1.0	100
1115.3602477	n/a	6_5_3	66.0	8	10.332336599938573	1.0	80
1115.5602113	n/a	6_5_4	66.0	8	10.532300199847668	-1.0	100
1116.5604935	 n/a	5	66.0	6	n/a	n/a	n/a
1116.5621139	0.75	5	66.0	13	0.75	n/a	-20
1117.3147643	0.75	5	66.0	13	0.75	n/a	140
1118.0681018	0.75	5	66.0	13	0.75	n/a	-20
1118.8203302	0.75	5	66.0	13	0.75	n/a	-20
1119.5726119	0.75	5	66.0	13	0.75	n/a	20
1120.3454754	1	5	66.0	9	n/a	n/a	100
1120.3454754	1	5	66.0	10	n/a	n/a	Aversive Pruning
1121.3529158	n/a	5	66.0	7	n/a	n/a	17.25
1122.275599	n/a	3	67.0	3	n/a	n/a	n/a
1122.275599	9	3	67.0	4	n/a	n/a	9
1131.2911979	2.5	3	67.0	5	n/a	n/a	2.5
1131.6576826	n/a	1_3_0	67.0	8	9.382083599921316	1.0	140
1131.9415308	n/a	1_3_1	67.0	8	9.665931799914688	1.0	120
1132.1116582	n/a	1_3_2	67.0	8	9.836059200111775	1.0	100
1133.8074529	 n/a	3	67.0	6	n/a	n/a	n/a
1133.8086149	0.75	3	67.0	13	0.75	n/a	140
1134.5608992	0.75	3	67.0	13	0.75	n/a	-20
1135.3151252	0.75	3	67.0	13	0.75	n/a	-20
1136.0848297	1	3	67.0	9	n/a	n/a	100
1136.0848297	1	3	67.0	10	n/a	n/a	ONLL Correct
1137.0912789	n/a	3	67.0	7	n/a	n/a	15.75
1138.0233229	n/a	4	68.0	3	n/a	n/a	n/a
1138.0233229	9	4	68.0	4	n/a	n/a	9
1147.0394484	2.5	4	68.0	5	n/a	n/a	2.5
1147.1057059	n/a	6_4_0	68.0	8	9.082383000291882	1.0	-20
1147.30718	n/a	6_4_1	68.0	8	9.283857100177556	1.0	120
1147.4900918	n/a	6_4_2	68.0	8	9.466768899932504	1.0	100
1147.672465	n/a	6_4_3	68.0	8	9.649142100010069	1.0	80
1149.5555623	 n/a	4	68.0	6	n/a	n/a	n/a
1149.5574784	0.75	4	68.0	13	0.75	n/a	-20
1150.3088166	0.75	4	68.0	13	0.75	n/a	140
1151.0602268	0.75	4	68.0	13	0.75	n/a	-20
1151.812106	0.75	4	68.0	13	0.75	n/a	-20
1152.5865892	1	4	68.0	9	n/a	n/a	80
1152.5865892	1	4	68.0	10	n/a	n/a	ONLL Correct
1153.5954618	n/a	4	68.0	7	n/a	n/a	16.5
1154.5216121	n/a	4	69.0	3	n/a	n/a	n/a
1154.5216121	9	4	69.0	4	n/a	n/a	9
1163.537345	2.5	4	69.0	5	n/a	n/a	2.5
1164.1206649	n/a	2_4_0	69.0	8	9.599052800331263	1.0	-20
1164.4543307	n/a	2_4_1	69.0	8	9.932718600146472	1.0	-40
1164.7210016	n/a	2_4_2	69.0	8	10.199389500077814	-1.0	-20
1164.9201914	n/a	2_4_3	69.0	8	10.398579299915582	1.0	-40
1166.053164	 n/a	4	69.0	6	n/a	n/a	n/a
1166.0548368	0.75	4	69.0	13	0.75	n/a	-20
1166.8077802	0.75	4	69.0	13	0.75	n/a	-20
1167.560582	0.75	4	69.0	13	0.75	n/a	20
1168.3128664	0.75	4	69.0	13	0.75	n/a	-20
1169.0877442	1	4	69.0	9	n/a	n/a	-40
1169.0877442	1	4	69.0	10	n/a	n/a	OLL Error
1170.0959762	n/a	4	69.0	7	n/a	n/a	16.5
1171.019745	n/a	5	70.0	3	n/a	n/a	n/a
1171.019745	9	5	70.0	4	n/a	n/a	9
1180.0349269	2.5	5	70.0	5	n/a	n/a	2.5
1180.2852266	n/a	4_5_0	70.0	8	9.265481599606575	1.0	-20
1180.5018606	n/a	4_5_1	70.0	8	9.482115599792449	1.0	-40
1180.6692483	n/a	4_5_2	70.0	8	9.649503299966456	1.0	-60
1180.8513015	n/a	4_5_3	70.0	8	9.831556499935688	1.0	80
1181.2689937	n/a	4_5_4	70.0	8	10.249248699750753	1.0	60
1182.5508241	 n/a	5	70.0	6	n/a	n/a	n/a
1182.5519868	0.75	5	70.0	13	0.75	n/a	-20
1183.3050452	0.75	5	70.0	13	0.75	n/a	-20
1184.0574521	0.75	5	70.0	13	0.75	n/a	-20
1184.8104737	0.75	5	70.0	13	0.75	n/a	140
1185.5628824	0.75	5	70.0	13	0.75	n/a	-20
1186.331699	1	5	70.0	9	n/a	n/a	60
1186.331699	1	5	70.0	10	n/a	n/a	ONLL Correct
1187.3384719	n/a	5	70.0	7	n/a	n/a	17.25
1188.2670668	n/a	3	71.0	3	n/a	n/a	n/a
1188.2670668	9	3	71.0	4	n/a	n/a	9
1197.2824111	2.5	3	71.0	5	n/a	n/a	2.5
1197.5835789	n/a	5_3_0	71.0	8	9.316512099932881	1.0	-20
1197.84881	n/a	5_3_1	71.0	8	9.581743199843912	1.0	-40
1198.0170849	n/a	5_3_2	71.0	8	9.750018099788576	1.0	100
1199.7826176	 n/a	3	71.0	6	n/a	n/a	n/a
1199.7849858	0.75	3	71.0	13	0.75	n/a	-20
1200.5367454	0.75	3	71.0	13	0.75	n/a	-20
1201.2891028	0.75	3	71.0	13	0.75	n/a	140
1202.0622499	1	3	71.0	9	n/a	n/a	100
1202.0622499	1	3	71.0	10	n/a	n/a	ONLL Correct
1203.0696646	n/a	3	71.0	7	n/a	n/a	15.75
1207.0384551	n/a	n/a	n/a	99	n/a	n/a	n/a
