onset	duration	trial_type	trial_number	event_code	response_time	response	result
1.85555560002	n/a	n/a	n/a	1	n/a	n/a	n/a
n/a	n/a	n/a	n/a	11	n/a	n/a	BREATHING_LOAD_RUN=NO
1.85555560002	n/a	n/a	n/a	1	n/a	n/a	n/a
8.0	0	n/a	n/a	2	n/a	n/a	n/a
16.0152357998	n/a	3	0.0	3	n/a	n/a	n/a
16.0152357998	9	3	0.0	4	n/a	n/a	9
25.0321696	2.5	3	0.0	5	n/a	n/a	2.5
25.4480727999	n/a	4_3_0	0.0	8	9.432837000116708	1.0	-20
25.7813106002	n/a	4_3_1	0.0	8	9.766074800398199	-1.0	-90
26.0487251002	n/a	4_3_2	0.0	8	10.033489300403744	1.0	50
27.5478057	 n/a	3	0.0	6	n/a	n/a	n/a
27.5514929001	0.75	3	0.0	13	0.75	n/a	-20
28.3068431001	0.75	3	0.0	13	0.75	n/a	-70
29.0617515002	0.75	3	0.0	13	0.75	n/a	140
29.8341754	1	3	0.0	9	n/a	n/a	50
29.8341754	1	3	0.0	10	n/a	n/a	OLL Correct
30.8411078001	n/a	3	0.0	7	n/a	n/a	15.75
31.7646495001	n/a	4	1.0	3	n/a	n/a	n/a
31.7646495001	9	4	1.0	4	n/a	n/a	9
40.7792209	2.5	4	1.0	5	n/a	n/a	2.5
41.2793697002	n/a	2_4_0	1.0	8	9.514720200095326	1.0	-20
41.7304691002	n/a	2_4_1	1.0	8	9.96581960003823	1.0	-40
42.2309059002	n/a	2_4_2	1.0	8	10.466256400104614	-1.0	-20
42.6127542001	n/a	2_4_3	1.0	8	10.848104699980466	1.0	-40
43.2955757999	 n/a	4	1.0	6	n/a	n/a	n/a
43.298616	0.75	4	1.0	13	0.75	n/a	-20
44.0531143001	0.75	4	1.0	13	0.75	n/a	-20
44.8080136999	0.75	4	1.0	13	0.75	n/a	20
45.5608418002	0.75	4	1.0	13	0.75	n/a	-20
46.3312492999	1	4	1.0	9	n/a	n/a	-40
46.3312492999	1	4	1.0	10	n/a	n/a	OLL Error
47.3369995002	n/a	4	1.0	7	n/a	n/a	16.5
48.2769781998	n/a	4	2.0	3	n/a	n/a	n/a
48.2769781998	9	4	2.0	4	n/a	n/a	9
57.2772261999	2.5	4	2.0	5	n/a	n/a	2.5
57.4275114001	n/a	4_4_0	2.0	8	9.150533200241624	1.0	-20
57.6615281999	n/a	4_4_1	2.0	8	9.384550000075249	1.0	-40
57.8610800998	n/a	4_4_2	2.0	8	9.584101899992676	1.0	-60
58.5774955	n/a	4_4_3	2.0	8	10.300517300143838	1.0	80
59.7937416001	 n/a	4	2.0	6	n/a	n/a	n/a
59.7961392002	0.75	4	2.0	13	0.75	n/a	-20
60.5508591998	0.75	4	2.0	13	0.75	n/a	-20
61.3060834003	0.75	4	2.0	13	0.75	n/a	-20
62.0596047998	0.75	4	2.0	13	0.75	n/a	140
62.8296706001	1	4	2.0	9	n/a	n/a	80
62.8296706001	1	4	2.0	10	n/a	n/a	ONLL Correct
63.8364285999	n/a	4	2.0	7	n/a	n/a	16.5
64.7766002002	n/a	5	3.0	3	n/a	n/a	n/a
64.7766002002	9	5	3.0	4	n/a	n/a	9
73.7915403	2.5	5	3.0	5	n/a	n/a	2.5
74.0423528003	n/a	5_5_0	3.0	8	9.265752600040287	1.0	-20
74.2585271001	n/a	5_5_1	3.0	8	9.481926899868997	1.0	-40
74.4935091003	n/a	5_5_2	3.0	8	9.716908900067212	1.0	100
74.6924510002	n/a	5_5_3	3.0	8	9.915850799996406	1.0	80
74.8933529002	n/a	5_5_4	3.0	8	10.116752699948847	1.0	60
76.3080941001	 n/a	5	3.0	6	n/a	n/a	n/a
76.3105857	0.75	5	3.0	13	0.75	n/a	-20
77.0630371002	0.75	5	3.0	13	0.75	n/a	-20
77.8174485001	0.75	5	3.0	13	0.75	n/a	140
78.5717906002	0.75	5	3.0	13	0.75	n/a	-20
79.3256808999	0.75	5	3.0	13	0.75	n/a	-20
80.1001940002	1	5	3.0	9	n/a	n/a	60
80.1001940002	1	5	3.0	10	n/a	n/a	Aversive Pruning
81.1073588999	n/a	5	3.0	7	n/a	n/a	17.25
82.0243350002	n/a	5	4.0	3	n/a	n/a	n/a
82.0243350002	9	5	4.0	4	n/a	n/a	9
91.0395487999	2.5	5	4.0	5	n/a	n/a	2.5
91.5895632999	n/a	2_5_0	4.0	8	9.565228299703447	1.0	-20
91.8407029998	n/a	2_5_1	4.0	8	9.816367999650536	1.0	-40
92.0571822999	n/a	2_5_2	4.0	8	10.032847299706189	1.0	-60
92.3067712002	n/a	2_5_3	4.0	8	10.282436199951915	-1.0	-130
92.5236539003	n/a	2_5_4	4.0	8	10.499318900052456	1.0	10
93.5399618	 n/a	5	4.0	6	n/a	n/a	n/a
93.5421932	0.75	5	4.0	13	0.75	n/a	-20
94.2964309999	0.75	5	4.0	13	0.75	n/a	-20
95.0490706	0.75	5	4.0	13	0.75	n/a	-20
95.8026470998	0.75	5	4.0	13	0.75	n/a	-70
96.5550676999	0.75	5	4.0	13	0.75	n/a	140
97.3260468002	1	5	4.0	9	n/a	n/a	10
97.3260468002	1	5	4.0	10	n/a	n/a	OLL Correct
98.3342881002	n/a	5	4.0	7	n/a	n/a	17.25
99.2718968	n/a	5	5.0	3	n/a	n/a	n/a
99.2718968	9	5	5.0	4	n/a	n/a	9
108.28752	2.5	5	5.0	5	n/a	n/a	2.5
108.5872621	n/a	6_5_0	5.0	8	9.315365300048144	1.0	-20
108.8382155	n/a	6_5_1	5.0	8	9.56631870009005	1.0	120
109.0382016	n/a	6_5_2	5.0	8	9.766304799821226	1.0	100
109.6375662	n/a	6_5_3	5.0	8	10.365669399965554	1.0	80
109.8715843	n/a	6_5_4	5.0	8	10.599687499925494	-1.0	100
110.8039301	 n/a	5	5.0	6	n/a	n/a	n/a
110.8059487	0.75	5	5.0	13	0.75	n/a	-20
111.5605917	0.75	5	5.0	13	0.75	n/a	140
112.3134723	0.75	5	5.0	13	0.75	n/a	-20
113.0668106	0.75	5	5.0	13	0.75	n/a	-20
113.8204463	0.75	5	5.0	13	0.75	n/a	20
114.5891678	1	5	5.0	9	n/a	n/a	100
114.5891678	1	5	5.0	10	n/a	n/a	Aversive Pruning
115.5966232	n/a	5	5.0	7	n/a	n/a	17.25
116.5198581	n/a	3	6.0	3	n/a	n/a	n/a
116.5198581	9	3	6.0	4	n/a	n/a	9
125.5352263	2.5	3	6.0	5	n/a	n/a	2.5
125.9526819	n/a	5_3_0	6.0	8	9.432823800016196	1.0	-20
126.1857494	n/a	5_3_1	6.0	8	9.665891299955547	1.0	-40
126.3687598	n/a	5_3_2	6.0	8	9.848901700228453	1.0	100
128.0522361	 n/a	3	6.0	6	n/a	n/a	n/a
128.0556607	0.75	3	6.0	13	0.75	n/a	-20
128.8095907	0.75	3	6.0	13	0.75	n/a	-20
129.5628876	0.75	3	6.0	13	0.75	n/a	140
130.3329361	1	3	6.0	9	n/a	n/a	100
130.3329361	1	3	6.0	10	n/a	n/a	ONLL Correct
131.3393439	n/a	3	6.0	7	n/a	n/a	15.75
132.2674179	n/a	3	7.0	3	n/a	n/a	n/a
132.2674179	9	3	7.0	4	n/a	n/a	9
141.2832778	2.5	3	7.0	5	n/a	n/a	2.5
141.7837284	n/a	3_3_0	7.0	8	9.516310499981047	1.0	-20
142.0001347	n/a	3_3_1	7.0	8	9.732716799713673	-1.0	0
142.217092	n/a	3_3_2	7.0	8	9.949674099683762	1.0	-20
143.7993423	 n/a	3	7.0	6	n/a	n/a	n/a
143.8014748	0.75	3	7.0	13	0.75	n/a	-20
144.5539023	0.75	3	7.0	13	0.75	n/a	20
145.3068668	0.75	3	7.0	13	0.75	n/a	-20
146.0816943	1	3	7.0	9	n/a	n/a	-20
146.0816943	1	3	7.0	10	n/a	n/a	Aversive Pruning
147.0887428	n/a	3	7.0	7	n/a	n/a	15.75
148.0155003	n/a	4	8.0	3	n/a	n/a	n/a
148.0155003	9	4	8.0	4	n/a	n/a	9
157.0317191	2.5	4	8.0	5	n/a	n/a	2.5
157.2823221	n/a	5_4_0	8.0	8	9.266821799799802	1.0	-20
157.4821883	n/a	5_4_1	8.0	8	9.466688000131398	1.0	-40
157.6654691	n/a	5_4_2	8.0	8	9.649968800134957	1.0	100
157.8657918	n/a	5_4_3	8.0	8	9.850291499868037	1.0	80
159.5473739	 n/a	4	8.0	6	n/a	n/a	n/a
159.5505396	0.75	4	8.0	13	0.75	n/a	-20
160.3047999	0.75	4	8.0	13	0.75	n/a	-20
161.0576768	0.75	4	8.0	13	0.75	n/a	140
161.8106128	0.75	4	8.0	13	0.75	n/a	-20
162.5840863	1	4	8.0	9	n/a	n/a	80
162.5840863	1	4	8.0	10	n/a	n/a	ONLL Correct
163.5925325	n/a	4	8.0	7	n/a	n/a	16.5
164.5286107	n/a	3	9.0	3	n/a	n/a	n/a
164.5286107	9	3	9.0	4	n/a	n/a	9
173.5288926	2.5	3	9.0	5	n/a	n/a	2.5
174.6299163	n/a	6_3_0	9.0	8	10.101305599790066	1.0	-20
175.0129713	n/a	6_3_1	9.0	8	10.484360599890351	1.0	120
176.0584039	1	3	9.0	9	n/a	n/a	-200
176.0584039	1	3	9.0	10	n/a	n/a	Miss
177.0644803	n/a	3	9.0	7	n/a	n/a	15.75
180.2764569	n/a	5	10.0	3	n/a	n/a	n/a
180.2764569	9	5	10.0	4	n/a	n/a	9
189.2773864	2.5	5	10.0	5	n/a	n/a	2.5
189.6949649	n/a	3_5_0	10.0	8	9.418508000206204	1.0	-20
189.9109261	n/a	3_5_1	10.0	8	9.63446919992566	1.0	-40
190.1118625	n/a	3_5_2	10.0	8	9.835405600257216	1.0	-60
190.2942788	n/a	3_5_3	10.0	8	10.017821900080891	1.0	-80
190.4941359	n/a	3_5_4	10.0	8	10.217678999993948	1.0	60
191.7936682	 n/a	5	10.0	6	n/a	n/a	n/a
191.7962325	0.75	5	10.0	13	0.75	n/a	-20
192.5501368	0.75	5	10.0	13	0.75	n/a	-20
193.3032302	0.75	5	10.0	13	0.75	n/a	-20
194.056689	0.75	5	10.0	13	0.75	n/a	-20
194.8087756	0.75	5	10.0	13	0.75	n/a	140
195.5780724	1	5	10.0	9	n/a	n/a	60
195.5780724	1	5	10.0	10	n/a	n/a	ONLL Correct
196.5838383	n/a	5	10.0	7	n/a	n/a	17.25
197.5260587	n/a	4	11.0	3	n/a	n/a	n/a
197.5260587	9	4	11.0	4	n/a	n/a	9
206.5413638	2.5	4	11.0	5	n/a	n/a	2.5
206.9258324	n/a	1_4_0	11.0	8	9.399773700162767	1.0	140
207.1091067	n/a	1_4_1	11.0	8	9.583048000000415	1.0	120
207.3089744	n/a	1_4_2	11.0	8	9.782915700227024	1.0	100
207.525385	n/a	1_4_3	11.0	8	9.999326300341638	-1.0	120
209.0426733	 n/a	4	11.0	6	n/a	n/a	n/a
209.0449233	0.75	4	11.0	13	0.75	n/a	140
209.7994816	0.75	4	11.0	13	0.75	n/a	-20
210.5539073	0.75	4	11.0	13	0.75	n/a	-20
211.3065425	0.75	4	11.0	13	0.75	n/a	20
212.0806716	1	4	11.0	9	n/a	n/a	120
212.0806716	1	4	11.0	10	n/a	n/a	Aversive Pruning
213.0881963	n/a	4	11.0	7	n/a	n/a	16.5
214.0243108	n/a	4	12.0	3	n/a	n/a	n/a
214.0243108	9	4	12.0	4	n/a	n/a	9
223.0399141	2.5	4	12.0	5	n/a	n/a	2.5
223.30659	n/a	3_4_0	12.0	8	9.282279199920596	1.0	-20
223.5407554	n/a	3_4_1	12.0	8	9.516444599721579	1.0	-40
223.75799	n/a	3_4_2	12.0	8	9.733679199591279	-1.0	-110
223.9734694	n/a	3_4_3	12.0	8	9.949158599600196	1.0	30
225.5557192	 n/a	4	12.0	6	n/a	n/a	n/a
225.5579466	0.75	4	12.0	13	0.75	n/a	-20
226.3113612	0.75	4	12.0	13	0.75	n/a	-20
227.0644205	0.75	4	12.0	13	0.75	n/a	-70
227.8176861	0.75	4	12.0	13	0.75	n/a	140
228.5883061	1	4	12.0	9	n/a	n/a	30
228.5883061	1	4	12.0	10	n/a	n/a	OLL Correct
229.5952879	n/a	4	12.0	7	n/a	n/a	16.5
230.5221058	n/a	5	13.0	3	n/a	n/a	n/a
230.5221058	9	5	13.0	4	n/a	n/a	9
239.5372071	2.5	5	13.0	5	n/a	n/a	2.5
240.3218419	n/a	4_5_0	13.0	8	9.799736100248992	1.0	-20
240.5885019	n/a	4_5_1	13.0	8	10.066396099980919	1.0	-40
240.8209793	n/a	4_5_2	13.0	8	10.298873499967158	1.0	-60
241.0382315	n/a	4_5_3	13.0	8	10.516125699970873	1.0	80
241.2381618	n/a	4_5_4	13.0	8	10.716055999975653	1.0	60
242.053528	 n/a	5	13.0	6	n/a	n/a	n/a
242.0556203	0.75	5	13.0	13	0.75	n/a	-20
242.8095147	0.75	5	13.0	13	0.75	n/a	-20
243.5616939	0.75	5	13.0	13	0.75	n/a	-20
244.3148167	0.75	5	13.0	13	0.75	n/a	140
245.0682199	0.75	5	13.0	13	0.75	n/a	-20
245.8432225	1	5	13.0	9	n/a	n/a	60
245.8432225	1	5	13.0	10	n/a	n/a	ONLL Correct
246.8503308	n/a	5	13.0	7	n/a	n/a	17.25
247.7702925	n/a	3	14.0	3	n/a	n/a	n/a
247.7702925	9	3	14.0	4	n/a	n/a	9
256.7852512	2.5	3	14.0	5	n/a	n/a	2.5
257.4194582	n/a	2_3_0	14.0	8	9.64916570018977	1.0	-20
257.8698246	n/a	2_3_1	14.0	8	10.099532099906355	1.0	-40
258.2528194	n/a	2_3_2	14.0	8	10.482526900246741	-1.0	-20
259.3017917	 n/a	3	14.0	6	n/a	n/a	n/a
259.3040804	0.75	3	14.0	13	0.75	n/a	-20
260.0580586	0.75	3	14.0	13	0.75	n/a	-20
260.8128454	0.75	3	14.0	13	0.75	n/a	20
261.586008	1	3	14.0	9	n/a	n/a	-20
261.586008	1	3	14.0	10	n/a	n/a	Aversive Pruning
262.5929596	n/a	3	14.0	7	n/a	n/a	15.75
263.5173588	n/a	3	15.0	3	n/a	n/a	n/a
263.5173588	9	3	15.0	4	n/a	n/a	9
272.5334425	2.5	3	15.0	5	n/a	n/a	2.5
272.8840459	n/a	1_3_0	15.0	8	9.366687099914998	1.0	140
273.134046	n/a	1_3_1	15.0	8	9.616687200032176	1.0	120
273.3498368	n/a	1_3_2	15.0	8	9.832478000316767	1.0	100
275.0493322	 n/a	3	15.0	6	n/a	n/a	n/a
275.0515633	0.75	3	15.0	13	0.75	n/a	140
275.8053095	0.75	3	15.0	13	0.75	n/a	-20
276.5591907	0.75	3	15.0	13	0.75	n/a	-20
277.3290597	1	3	15.0	9	n/a	n/a	100
277.3290597	1	3	15.0	10	n/a	n/a	ONLL Correct
278.3363211	n/a	3	15.0	7	n/a	n/a	15.75
279.2658732	n/a	4	16.0	3	n/a	n/a	n/a
279.2658732	9	4	16.0	4	n/a	n/a	9
288.2811837	2.5	4	16.0	5	n/a	n/a	2.5
288.598308	n/a	6_4_0	16.0	8	9.332434799987825	1.0	-20
288.8316726	n/a	6_4_1	16.0	8	9.565799399744721	1.0	120
289.1151838	n/a	6_4_2	16.0	8	9.849310599733144	1.0	100
289.3986008	n/a	6_4_3	16.0	8	10.132727599702775	1.0	80
290.7977036	 n/a	4	16.0	6	n/a	n/a	n/a
290.8002797	0.75	4	16.0	13	0.75	n/a	-20
291.554151	0.75	4	16.0	13	0.75	n/a	140
292.3070982	0.75	4	16.0	13	0.75	n/a	-20
293.0618075	0.75	4	16.0	13	0.75	n/a	-20
293.8351017	1	4	16.0	9	n/a	n/a	80
293.8351017	1	4	16.0	10	n/a	n/a	ONLL Correct
294.8438201	n/a	4	16.0	7	n/a	n/a	16.5
295.7786549	n/a	5	17.0	3	n/a	n/a	n/a
295.7786549	9	5	17.0	4	n/a	n/a	9
304.779244	2.5	5	17.0	5	n/a	n/a	2.5
305.2459232	n/a	1_5_0	17.0	8	9.467268300242724	1.0	140
305.7796739	n/a	1_5_1	17.0	8	10.001019000075758	1.0	120
306.1123799	n/a	1_5_2	17.0	8	10.333725000265988	1.0	100
306.3962611	n/a	1_5_3	17.0	8	10.617606200277804	-1.0	120
306.662923	n/a	1_5_4	17.0	8	10.884268099907787	1.0	100
307.2959036	 n/a	5	17.0	6	n/a	n/a	n/a
307.298369	0.75	5	17.0	13	0.75	n/a	140
308.0511738	0.75	5	17.0	13	0.75	n/a	-20
308.8052817	0.75	5	17.0	13	0.75	n/a	-20
309.5585625	0.75	5	17.0	13	0.75	n/a	20
310.3130023	0.75	5	17.0	13	0.75	n/a	-20
311.0819843	1	5	17.0	9	n/a	n/a	100
311.0819843	1	5	17.0	10	n/a	n/a	OLL Error
312.0892084	n/a	5	17.0	7	n/a	n/a	17.25
313.028402	n/a	3	18.0	3	n/a	n/a	n/a
313.028402	9	3	18.0	4	n/a	n/a	9
322.0437767	2.5	3	18.0	5	n/a	n/a	2.5
322.4279664	n/a	2_3_0	18.0	8	9.399564399849623	1.0	-20
322.7768528	n/a	2_3_1	18.0	8	9.74845079984516	1.0	-40
323.0275846	n/a	2_3_2	18.0	8	9.999182600062339	1.0	-60
324.5599861	 n/a	3	18.0	6	n/a	n/a	n/a
324.5617767	0.75	3	18.0	13	0.75	n/a	-20
325.315219	0.75	3	18.0	13	0.75	n/a	-20
326.069112	0.75	3	18.0	13	0.75	n/a	-20
326.8368798	1	3	18.0	9	n/a	n/a	-60
326.8368798	1	3	18.0	10	n/a	n/a	OLL Error
327.8441464	n/a	3	18.0	7	n/a	n/a	15.75
328.7757728	n/a	5	19.0	3	n/a	n/a	n/a
328.7757728	9	5	19.0	4	n/a	n/a	9
337.7913881	2.5	5	19.0	5	n/a	n/a	2.5
338.1090734	n/a	4_5_0	19.0	8	9.333300599828364	1.0	-20
338.4257073	n/a	4_5_1	19.0	8	9.649934499990195	1.0	-40
338.6924291	n/a	4_5_2	19.0	8	9.916656299959866	1.0	-60
338.9590335	n/a	4_5_3	19.0	8	10.183260699734092	1.0	80
339.1587837	n/a	4_5_4	19.0	8	10.38301089964807	1.0	60
340.291496	 n/a	5	19.0	6	n/a	n/a	n/a
340.2941641	0.75	5	19.0	13	0.75	n/a	-20
341.0474187	0.75	5	19.0	13	0.75	n/a	-20
341.8011291	0.75	5	19.0	13	0.75	n/a	-20
342.5561379	0.75	5	19.0	13	0.75	n/a	140
343.3097882	0.75	5	19.0	13	0.75	n/a	-20
344.0819389	1	5	19.0	9	n/a	n/a	60
344.0819389	1	5	19.0	10	n/a	n/a	ONLL Correct
345.0890439	n/a	5	19.0	7	n/a	n/a	17.25
346.0241591	n/a	5	20.0	3	n/a	n/a	n/a
346.0241591	9	5	20.0	4	n/a	n/a	9
355.0398641	2.5	5	20.0	5	n/a	n/a	2.5
355.2891214	n/a	2_5_0	20.0	8	9.264962300192565	1.0	-20
355.5064578	n/a	2_5_1	20.0	8	9.482298700138928	1.0	-40
355.7234471	n/a	2_5_2	20.0	8	9.699288000352679	1.0	-60
356.2234895	n/a	2_5_3	20.0	8	10.199330400209872	-1.0	-130
356.4393266	n/a	2_5_4	20.0	8	10.415167500264944	1.0	10
357.5562243	 n/a	5	20.0	6	n/a	n/a	n/a
357.5591415	0.75	5	20.0	13	0.75	n/a	-20
358.3134705	0.75	5	20.0	13	0.75	n/a	-20
359.0677435	0.75	5	20.0	13	0.75	n/a	-20
359.8214409	0.75	5	20.0	13	0.75	n/a	-70
360.5745035	0.75	5	20.0	13	0.75	n/a	140
361.3459474	1	5	20.0	9	n/a	n/a	10
361.3459474	1	5	20.0	10	n/a	n/a	OLL Correct
362.3523011	n/a	5	20.0	7	n/a	n/a	17.25
363.2717285	n/a	4	21.0	3	n/a	n/a	n/a
363.2717285	9	4	21.0	4	n/a	n/a	9
372.2870386	2.5	4	21.0	5	n/a	n/a	2.5
372.5381391	n/a	5_4_0	21.0	8	9.26641059992835	1.0	-20
372.7711096	n/a	5_4_1	21.0	8	9.499381099827588	1.0	-40
372.9711154	n/a	5_4_2	21.0	8	9.699386899825186	1.0	100
373.1704738	n/a	5_4_3	21.0	8	9.898745299782604	1.0	80
374.8035671	 n/a	4	21.0	6	n/a	n/a	n/a
374.8061017	0.75	4	21.0	13	0.75	n/a	-20
375.5598682	0.75	4	21.0	13	0.75	n/a	-20
376.3140742	0.75	4	21.0	13	0.75	n/a	140
377.0684541	0.75	4	21.0	13	0.75	n/a	-20
377.8398631	1	4	21.0	9	n/a	n/a	80
377.8398631	1	4	21.0	10	n/a	n/a	ONLL Correct
378.8458971	n/a	4	21.0	7	n/a	n/a	16.5
379.7694275	n/a	4	22.0	3	n/a	n/a	n/a
379.7694275	9	4	22.0	4	n/a	n/a	9
388.7849643	2.5	4	22.0	5	n/a	n/a	2.5
388.8696362	n/a	4_4_0	22.0	8	9.100208699703217	1.0	-20
389.1691133	n/a	4_4_1	22.0	8	9.399685800075533	1.0	-40
389.4358285	n/a	4_4_2	22.0	8	9.666400999762116	1.0	-60
389.685047	n/a	4_4_3	22.0	8	9.915619499981405	1.0	80
391.3019184	 n/a	4	22.0	6	n/a	n/a	n/a
391.3047331	0.75	4	22.0	13	0.75	n/a	-20
392.0595207	0.75	4	22.0	13	0.75	n/a	-20
392.8124102	0.75	4	22.0	13	0.75	n/a	-20
393.5659774	0.75	4	22.0	13	0.75	n/a	140
394.3392448	1	4	22.0	9	n/a	n/a	80
394.3392448	1	4	22.0	10	n/a	n/a	ONLL Correct
395.3468485	n/a	4	22.0	7	n/a	n/a	16.5
396.2672792	n/a	3	23.0	3	n/a	n/a	n/a
396.2672792	9	3	23.0	4	n/a	n/a	9
405.2828607	2.5	3	23.0	5	n/a	n/a	2.5
405.6008765	n/a	6_3_0	23.0	8	9.33359729964286	1.0	-20
405.882727	n/a	6_3_1	23.0	8	9.615447799675168	1.0	120
406.1167726	n/a	6_3_2	23.0	8	9.84949339972809	1.0	100
407.7997531	 n/a	3	23.0	6	n/a	n/a	n/a
407.8024964	0.75	3	23.0	13	0.75	n/a	-20
408.5555596	0.75	3	23.0	13	0.75	n/a	140
409.3087369	0.75	3	23.0	13	0.75	n/a	-20
410.0851381	1	3	23.0	9	n/a	n/a	100
410.0851381	1	3	23.0	10	n/a	n/a	ONLL Correct
411.0925773	n/a	3	23.0	7	n/a	n/a	15.75
412.0159133	n/a	4	24.0	3	n/a	n/a	n/a
412.0159133	9	4	24.0	4	n/a	n/a	9
421.0306796	2.5	4	24.0	5	n/a	n/a	2.5
421.3149146	n/a	1_4_0	24.0	8	9.299001299776137	1.0	140
421.5976412	n/a	1_4_1	24.0	8	9.581727899610996	1.0	120
421.8811949	n/a	1_4_2	24.0	8	9.865281600039454	1.0	100
422.1487064	n/a	1_4_3	24.0	8	10.132793099619446	-1.0	120
423.5470368	 n/a	4	24.0	6	n/a	n/a	n/a
423.5483014	0.75	4	24.0	13	0.75	n/a	140
424.3018012	0.75	4	24.0	13	0.75	n/a	-20
425.0567581	0.75	4	24.0	13	0.75	n/a	-20
425.8112775	0.75	4	24.0	13	0.75	n/a	20
426.5853395	1	4	24.0	9	n/a	n/a	120
426.5853395	1	4	24.0	10	n/a	n/a	Aversive Pruning
427.5922553	n/a	4	24.0	7	n/a	n/a	16.5
428.5140821	n/a	3	25.0	3	n/a	n/a	n/a
428.5140821	9	3	25.0	4	n/a	n/a	9
437.5290706	2.5	3	25.0	5	n/a	n/a	2.5
438.1792155	n/a	4_3_0	25.0	8	9.665133399888873	1.0	-20
438.5628167	n/a	4_3_1	25.0	8	10.048734599724412	-1.0	-90
438.8794586	n/a	4_3_2	25.0	8	10.36537649994716	1.0	50
440.045745	 n/a	3	25.0	6	n/a	n/a	n/a
440.0484671	0.75	3	25.0	13	0.75	n/a	-20
440.8015305	0.75	3	25.0	13	0.75	n/a	-70
441.5565668	0.75	3	25.0	13	0.75	n/a	140
442.3260069	1	3	25.0	9	n/a	n/a	50
442.3260069	1	3	25.0	10	n/a	n/a	OLL Correct
443.3330648	n/a	3	25.0	7	n/a	n/a	15.75
444.2762136	n/a	5	26.0	3	n/a	n/a	n/a
444.2762136	9	5	26.0	4	n/a	n/a	9
453.2772256	2.5	5	26.0	5	n/a	n/a	2.5
453.8784229	n/a	6_5_0	26.0	8	9.60220930026844	1.0	-20
454.2442153	n/a	6_5_1	26.0	8	9.968001700006424	1.0	120
454.6442551	n/a	6_5_2	26.0	8	10.368041500449179	1.0	100
455.0605197	n/a	6_5_3	26.0	8	10.784306100104002	-1.0	30
455.3944355	n/a	6_5_4	26.0	8	11.118221900425851	1.0	10
455.7934876	 n/a	5	26.0	6	n/a	n/a	n/a
455.7969687	0.75	5	26.0	13	0.75	n/a	-20
456.5501436	0.75	5	26.0	13	0.75	n/a	140
457.3046349	0.75	5	26.0	13	0.75	n/a	-20
458.0589859	0.75	5	26.0	13	0.75	n/a	-70
458.811585	0.75	5	26.0	13	0.75	n/a	-20
459.5858575	1	5	26.0	9	n/a	n/a	10
459.5858575	1	5	26.0	10	n/a	n/a	OLL Error
460.5930996	n/a	5	26.0	7	n/a	n/a	17.25
461.5262852	n/a	3	27.0	3	n/a	n/a	n/a
461.5262852	9	3	27.0	4	n/a	n/a	9
470.5411805	2.5	3	27.0	5	n/a	n/a	2.5
470.9255512	n/a	5_3_0	27.0	8	9.399266000371426	1.0	-20
471.1750056	n/a	5_3_1	27.0	8	9.648720399942247	1.0	-40
471.4082316	n/a	5_3_2	27.0	8	9.881946400273591	1.0	100
473.0570019	 n/a	3	27.0	6	n/a	n/a	n/a
473.058028	0.75	3	27.0	13	0.75	n/a	-20
473.8113592	0.75	3	27.0	13	0.75	n/a	-20
474.5641229	0.75	3	27.0	13	0.75	n/a	140
475.3389983	1	3	27.0	9	n/a	n/a	100
475.3389983	1	3	27.0	10	n/a	n/a	ONLL Correct
476.3462489	n/a	3	27.0	7	n/a	n/a	15.75
477.2741474	n/a	3	28.0	3	n/a	n/a	n/a
477.2741474	9	3	28.0	4	n/a	n/a	9
486.2895316	2.5	3	28.0	5	n/a	n/a	2.5
486.7903566	n/a	3_3_0	28.0	8	9.516209200024603	1.0	-20
487.1064188	n/a	3_3_1	28.0	8	9.832271399907768	-1.0	0
487.4066255	n/a	3_3_2	28.0	8	10.13247809978202	1.0	-20
488.8060213	 n/a	3	28.0	6	n/a	n/a	n/a
488.8073036	0.75	3	28.0	13	0.75	n/a	-20
489.5606579	0.75	3	28.0	13	0.75	n/a	20
490.3139119	0.75	3	28.0	13	0.75	n/a	-20
491.0837077	1	3	28.0	9	n/a	n/a	-20
491.0837077	1	3	28.0	10	n/a	n/a	Aversive Pruning
492.09106	n/a	3	28.0	7	n/a	n/a	15.75
493.0216264	n/a	5	29.0	3	n/a	n/a	n/a
493.0216264	9	5	29.0	4	n/a	n/a	9
502.0376702	2.5	5	29.0	5	n/a	n/a	2.5
502.4376542	n/a	3_5_0	29.0	8	9.416027800180018	1.0	-20
502.6389093	n/a	3_5_1	29.0	8	9.617282900027929	1.0	-40
502.8539774	n/a	3_5_2	29.0	8	9.83235100004822	1.0	-60
503.0382866	n/a	3_5_3	29.0	8	10.016660200431943	1.0	-80
503.2380592	n/a	3_5_4	29.0	8	10.216432800050823	1.0	60
504.5537492	 n/a	5	29.0	6	n/a	n/a	n/a
504.5561447	0.75	5	29.0	13	0.75	n/a	-20
505.3097031	0.75	5	29.0	13	0.75	n/a	-20
506.0632067	0.75	5	29.0	13	0.75	n/a	-20
506.8172836	0.75	5	29.0	13	0.75	n/a	-20
507.5721671	0.75	5	29.0	13	0.75	n/a	140
508.3446777	1	5	29.0	9	n/a	n/a	60
508.3446777	1	5	29.0	10	n/a	n/a	ONLL Correct
509.3510562	n/a	5	29.0	7	n/a	n/a	17.25
510.2699518	n/a	5	30.0	3	n/a	n/a	n/a
510.2699518	9	5	30.0	4	n/a	n/a	9
519.2852634	2.5	5	30.0	5	n/a	n/a	2.5
519.819326	n/a	1_5_0	30.0	8	9.549374199938027	1.0	140
520.0354157	n/a	1_5_1	30.0	8	9.765463900286703	1.0	120
520.2523201	n/a	1_5_2	30.0	8	9.982368300203234	1.0	100
520.4356539	n/a	1_5_3	30.0	8	10.16570210037753	1.0	80
520.6032183	n/a	1_5_4	30.0	8	10.333266500383617	-1.0	10
521.7855709	 n/a	5	30.0	6	n/a	n/a	n/a
521.787751	0.75	5	30.0	13	0.75	n/a	140
522.5413981	0.75	5	30.0	13	0.75	n/a	-20
523.2957637	0.75	5	30.0	13	0.75	n/a	-20
524.0491917	0.75	5	30.0	13	0.75	n/a	-20
524.8033001	0.75	5	30.0	13	0.75	n/a	-70
525.5773258	1	5	30.0	9	n/a	n/a	10
525.5773258	1	5	30.0	10	n/a	n/a	OLL Error
526.5841657	n/a	5	30.0	7	n/a	n/a	17.25
527.5179215	n/a	3	31.0	3	n/a	n/a	n/a
527.5179215	9	3	31.0	4	n/a	n/a	9
536.5330394	2.5	3	31.0	5	n/a	n/a	2.5
536.9176988	n/a	1_3_0	31.0	8	9.399777300190179	1.0	140
537.2000135	n/a	1_3_1	31.0	8	9.682092000264673	1.0	120
537.45046	n/a	1_3_2	31.0	8	9.932538500055669	1.0	100
539.0494626	 n/a	3	31.0	6	n/a	n/a	n/a
539.0522876	0.75	3	31.0	13	0.75	n/a	140
539.8059348	0.75	3	31.0	13	0.75	n/a	-20
540.5593478	0.75	3	31.0	13	0.75	n/a	-20
541.330325	1	3	31.0	9	n/a	n/a	100
541.330325	1	3	31.0	10	n/a	n/a	ONLL Correct
542.3362331	n/a	3	31.0	7	n/a	n/a	15.75
543.2665099	n/a	4	32.0	3	n/a	n/a	n/a
543.2665099	9	4	32.0	4	n/a	n/a	9
552.2807408	2.5	4	32.0	5	n/a	n/a	2.5
552.5477418	n/a	6_4_0	32.0	8	9.281231900211424	1.0	-20
553.0982354	n/a	6_4_1	32.0	8	9.831725500058383	1.0	120
553.382249	n/a	6_4_2	32.0	8	10.115739100147039	1.0	100
553.6474783	n/a	6_4_3	32.0	8	10.380968400277196	1.0	80
554.7972032	 n/a	4	32.0	6	n/a	n/a	n/a
554.8000291	0.75	4	32.0	13	0.75	n/a	-20
555.5529244	0.75	4	32.0	13	0.75	n/a	140
556.307051	0.75	4	32.0	13	0.75	n/a	-20
557.0605658	0.75	4	32.0	13	0.75	n/a	-20
557.8300995	1	4	32.0	9	n/a	n/a	80
557.8300995	1	4	32.0	10	n/a	n/a	ONLL Correct
558.8370119	n/a	4	32.0	7	n/a	n/a	16.5
559.763875	n/a	5	33.0	3	n/a	n/a	n/a
559.763875	9	5	33.0	4	n/a	n/a	9
568.7788902	2.5	5	33.0	5	n/a	n/a	2.5
569.0628871	n/a	5_5_0	33.0	8	9.299012099858373	1.0	-20
569.329689	n/a	5_5_1	33.0	8	9.565814000088723	1.0	-40
569.5962657	n/a	5_5_2	33.0	8	9.83239070000127	1.0	100
569.8460854	n/a	5_5_3	33.0	8	10.082210399676113	1.0	80
570.1133983	n/a	5_5_4	33.0	8	10.349523299839348	1.0	60
571.295312	 n/a	5	33.0	6	n/a	n/a	n/a
571.2986641	0.75	5	33.0	13	0.75	n/a	-20
572.0526076	0.75	5	33.0	13	0.75	n/a	-20
572.80603	0.75	5	33.0	13	0.75	n/a	140
573.5601265	0.75	5	33.0	13	0.75	n/a	-20
574.3141429	0.75	5	33.0	13	0.75	n/a	-20
575.0852451	1	5	33.0	9	n/a	n/a	60
575.0852451	1	5	33.0	10	n/a	n/a	Aversive Pruning
576.0931476	n/a	5	33.0	7	n/a	n/a	17.25
577.0281392	n/a	4	34.0	3	n/a	n/a	n/a
577.0281392	9	4	34.0	4	n/a	n/a	9
586.0433926	2.5	4	34.0	5	n/a	n/a	2.5
586.5439192	n/a	2_4_0	34.0	8	9.515780000016091	1.0	-20
587.0436613	n/a	2_4_1	34.0	8	10.015522100031378	1.0	-40
587.377046	n/a	2_4_2	34.0	8	10.348906800150873	-1.0	-20
587.6934005	n/a	2_4_3	34.0	8	10.665261299815027	1.0	-40
588.5599089	 n/a	4	34.0	6	n/a	n/a	n/a
588.5622015	0.75	4	34.0	13	0.75	n/a	-20
589.3158353	0.75	4	34.0	13	0.75	n/a	-20
590.0697885	0.75	4	34.0	13	0.75	n/a	20
590.82465	0.75	4	34.0	13	0.75	n/a	-20
591.5941016	1	4	34.0	9	n/a	n/a	-40
591.5941016	1	4	34.0	10	n/a	n/a	OLL Error
592.6023027	n/a	4	34.0	7	n/a	n/a	16.5
593.5264147	n/a	4	35.0	3	n/a	n/a	n/a
593.5264147	9	4	35.0	4	n/a	n/a	9
602.5414695	2.5	4	35.0	5	n/a	n/a	2.5
602.8754987	n/a	3_4_0	35.0	8	9.349084000103176	1.0	-20
603.208623	n/a	3_4_1	35.0	8	9.682208300102502	1.0	-40
603.5581873	n/a	3_4_2	35.0	8	10.031772600021213	-1.0	-110
603.8754254	n/a	3_4_3	35.0	8	10.349010700359939	1.0	30
605.0575631	 n/a	4	35.0	6	n/a	n/a	n/a
605.0597945	0.75	4	35.0	13	0.75	n/a	-20
605.8132987	0.75	4	35.0	13	0.75	n/a	-20
606.5665686	0.75	4	35.0	13	0.75	n/a	-70
607.319241	0.75	4	35.0	13	0.75	n/a	140
608.0946818	1	4	35.0	9	n/a	n/a	30
608.0946818	1	4	35.0	10	n/a	n/a	OLL Correct
609.102246	n/a	4	35.0	7	n/a	n/a	16.5
610.0242261	n/a	4	36.0	3	n/a	n/a	n/a
610.0242261	9	4	36.0	4	n/a	n/a	9
619.0397775	2.5	4	36.0	5	n/a	n/a	2.5
619.3240796	n/a	3_4_0	36.0	8	9.299853499978779	1.0	-20
619.6070791	n/a	3_4_1	36.0	8	9.582852999679744	1.0	-40
619.9398623	n/a	3_4_2	36.0	8	9.91563619999215	-1.0	-110
620.2066965	n/a	3_4_3	36.0	8	10.18247039988637	1.0	30
621.5556326	 n/a	4	36.0	6	n/a	n/a	n/a
621.558528	0.75	4	36.0	13	0.75	n/a	-20
622.3134393	0.75	4	36.0	13	0.75	n/a	-20
623.066118	0.75	4	36.0	13	0.75	n/a	-70
623.8198378	0.75	4	36.0	13	0.75	n/a	140
624.5918701	1	4	36.0	9	n/a	n/a	30
624.5918701	1	4	36.0	10	n/a	n/a	OLL Correct
625.5993259	n/a	4	36.0	7	n/a	n/a	16.5
626.5216862	n/a	3	37.0	3	n/a	n/a	n/a
626.5216862	9	3	37.0	4	n/a	n/a	9
635.5371258	2.5	3	37.0	5	n/a	n/a	2.5
635.8546543	n/a	2_3_0	37.0	8	9.332968099974096	1.0	-20
636.1040971	n/a	2_3_1	37.0	8	9.582410899922252	1.0	-40
636.387487	n/a	2_3_2	37.0	8	9.865800799801946	-1.0	-20
638.0537471	 n/a	3	37.0	6	n/a	n/a	n/a
638.0560883	0.75	3	37.0	13	0.75	n/a	-20
638.8102345	0.75	3	37.0	13	0.75	n/a	-20
639.5631708	0.75	3	37.0	13	0.75	n/a	20
640.3338188	1	3	37.0	9	n/a	n/a	-20
640.3338188	1	3	37.0	10	n/a	n/a	Aversive Pruning
641.3411274	n/a	3	37.0	7	n/a	n/a	15.75
642.2700636	n/a	3	38.0	3	n/a	n/a	n/a
642.2700636	9	3	38.0	4	n/a	n/a	9
651.2851118	2.5	3	38.0	5	n/a	n/a	2.5
651.5857181	n/a	6_3_0	38.0	8	9.315654499921948	1.0	-20
651.8857784	n/a	6_3_1	38.0	8	9.615714800078422	1.0	120
652.1525062	n/a	6_3_2	38.0	8	9.882442600093784	1.0	100
653.801177	 n/a	3	38.0	6	n/a	n/a	n/a
653.8025133	0.75	3	38.0	13	0.75	n/a	-20
654.5556926	0.75	3	38.0	13	0.75	n/a	140
655.3088535	0.75	3	38.0	13	0.75	n/a	-20
656.0786931	1	3	38.0	9	n/a	n/a	100
656.0786931	1	3	38.0	10	n/a	n/a	ONLL Correct
657.0853515	n/a	3	38.0	7	n/a	n/a	15.75
658.0177287	n/a	5	39.0	3	n/a	n/a	n/a
658.0177287	9	5	39.0	4	n/a	n/a	9
667.0329411	2.5	5	39.0	5	n/a	n/a	2.5
667.6328521	n/a	5_5_0	39.0	8	9.615123399998993	1.0	-20
668.0004203	n/a	5_5_1	39.0	8	9.982691599987447	1.0	-40
668.2672322	n/a	5_5_2	39.0	8	10.249503500293939	1.0	100
668.5329619	n/a	5_5_3	39.0	8	10.51523320004344	1.0	80
668.8164058	n/a	5_5_4	39.0	8	10.798677100334315	1.0	60
669.549976	 n/a	5	39.0	6	n/a	n/a	n/a
669.55269	0.75	5	39.0	13	0.75	n/a	-20
670.305608	0.75	5	39.0	13	0.75	n/a	-20
671.0600856	0.75	5	39.0	13	0.75	n/a	140
671.8149214	0.75	5	39.0	13	0.75	n/a	-20
672.5690022	0.75	5	39.0	13	0.75	n/a	-20
673.3398537	1	5	39.0	9	n/a	n/a	60
673.3398537	1	5	39.0	10	n/a	n/a	Aversive Pruning
674.3465499	n/a	5	39.0	7	n/a	n/a	17.25
675.2654733	n/a	5	40.0	3	n/a	n/a	n/a
675.2654733	9	5	40.0	4	n/a	n/a	9
684.2808448	2.5	5	40.0	5	n/a	n/a	2.5
684.6818046	n/a	1_5_0	40.0	8	9.416331300046297	1.0	140
684.9315727	n/a	1_5_1	40.0	8	9.666099399793893	1.0	120
685.2645248	n/a	1_5_2	40.0	8	9.999051500111818	1.0	100
685.5310899	n/a	1_5_3	40.0	8	10.265616599936036	-1.0	120
685.7819286	n/a	1_5_4	40.0	8	10.516455300152304	1.0	100
686.7970372	 n/a	5	40.0	6	n/a	n/a	n/a
686.7987492	0.75	5	40.0	13	0.75	n/a	140
687.5531683	0.75	5	40.0	13	0.75	n/a	-20
688.3059924	0.75	5	40.0	13	0.75	n/a	-20
689.0604061	0.75	5	40.0	13	0.75	n/a	20
689.8139889	0.75	5	40.0	13	0.75	n/a	-20
690.5847022	1	5	40.0	9	n/a	n/a	100
690.5847022	1	5	40.0	10	n/a	n/a	OLL Error
691.590874	n/a	5	40.0	7	n/a	n/a	17.25
692.5137016	n/a	4	41.0	3	n/a	n/a	n/a
692.5137016	9	4	41.0	4	n/a	n/a	9
701.5287523	2.5	4	41.0	5	n/a	n/a	2.5
701.8785106	n/a	4_4_0	41.0	8	9.364808999933302	1.0	-20
702.1129284	n/a	4_4_1	41.0	8	9.599226800259203	1.0	-40
702.3630207	n/a	4_4_2	41.0	8	9.849319099914284	1.0	-60
702.6140862	n/a	4_4_3	41.0	8	10.100384599994866	1.0	80
704.045164	 n/a	4	41.0	6	n/a	n/a	n/a
704.0475577	0.75	4	41.0	13	0.75	n/a	-20
704.8008569	0.75	4	41.0	13	0.75	n/a	-20
705.5551394	0.75	4	41.0	13	0.75	n/a	-20
706.3084388	0.75	4	41.0	13	0.75	n/a	140
707.082482	1	4	41.0	9	n/a	n/a	80
707.082482	1	4	41.0	10	n/a	n/a	ONLL Correct
708.0892736	n/a	4	41.0	7	n/a	n/a	16.5
709.0264052	n/a	5	42.0	3	n/a	n/a	n/a
709.0264052	9	5	42.0	4	n/a	n/a	9
718.026422	2.5	5	42.0	5	n/a	n/a	2.5
718.2605215	n/a	2_5_0	42.0	8	9.234116300009193	1.0	-20
718.4605035	n/a	2_5_1	42.0	8	9.434098300058396	1.0	-40
718.6273539	n/a	2_5_2	42.0	8	9.600948700215667	1.0	-60
718.8099668	n/a	2_5_3	42.0	8	9.783561600372195	-1.0	-130
719.0110506	n/a	2_5_4	42.0	8	9.984645400196314	1.0	10
720.543294	 n/a	5	42.0	6	n/a	n/a	n/a
720.5460266	0.75	5	42.0	13	0.75	n/a	-20
721.2999918	0.75	5	42.0	13	0.75	n/a	-20
722.0540229	0.75	5	42.0	13	0.75	n/a	-20
722.8076266	0.75	5	42.0	13	0.75	n/a	-70
723.5617086	0.75	5	42.0	13	0.75	n/a	140
724.3361595	1	5	42.0	9	n/a	n/a	10
724.3361595	1	5	42.0	10	n/a	n/a	OLL Correct
725.3425127	n/a	5	42.0	7	n/a	n/a	17.25
726.2757514	n/a	4	43.0	3	n/a	n/a	n/a
726.2757514	9	4	43.0	4	n/a	n/a	9
735.2910899	2.5	4	43.0	5	n/a	n/a	2.5
735.3926237	n/a	1_4_0	43.0	8	9.116872299928216	1.0	140
735.6246619	n/a	1_4_1	43.0	8	9.3489104998298	1.0	120
735.8254075	n/a	1_4_2	43.0	8	9.549656099639831	1.0	100
736.0910635	n/a	1_4_3	43.0	8	9.815312099643053	-1.0	120
737.8073184	 n/a	4	43.0	6	n/a	n/a	n/a
737.8097503	0.75	4	43.0	13	0.75	n/a	140
738.5624514	0.75	4	43.0	13	0.75	n/a	-20
739.3168815	0.75	4	43.0	13	0.75	n/a	-20
740.0715582	0.75	4	43.0	13	0.75	n/a	20
740.8438412	1	4	43.0	9	n/a	n/a	120
740.8438412	1	4	43.0	10	n/a	n/a	Aversive Pruning
741.8505129	n/a	4	43.0	7	n/a	n/a	16.5
742.7739572	n/a	3	44.0	3	n/a	n/a	n/a
742.7739572	9	3	44.0	4	n/a	n/a	9
751.7891228	2.5	3	44.0	5	n/a	n/a	2.5
752.2063005	n/a	3_3_0	44.0	8	9.432343299966304	1.0	-20
752.4225287	n/a	3_3_1	44.0	8	9.64857150008902	-1.0	0
752.6895455	n/a	3_3_2	44.0	8	9.915588300209492	1.0	-20
754.3053049	 n/a	3	44.0	6	n/a	n/a	n/a
754.3081319	0.75	3	44.0	13	0.75	n/a	-20
755.0626694	0.75	3	44.0	13	0.75	n/a	20
755.816677	0.75	3	44.0	13	0.75	n/a	-20
756.5908633	1	3	44.0	9	n/a	n/a	-20
756.5908633	1	3	44.0	10	n/a	n/a	Aversive Pruning
757.5961808	n/a	3	44.0	7	n/a	n/a	15.75
758.5218791	n/a	4	45.0	3	n/a	n/a	n/a
758.5218791	9	4	45.0	4	n/a	n/a	9
767.5367676	2.5	4	45.0	5	n/a	n/a	2.5
767.8047935	n/a	5_4_0	45.0	8	9.282914399635047	1.0	-20
768.0376771	n/a	5_4_1	45.0	8	9.515797999687491	1.0	-40
768.2537285	n/a	5_4_2	45.0	8	9.731849399860947	1.0	100
768.4545333	n/a	5_4_3	45.0	8	9.932654199656099	1.0	80
770.0531674	 n/a	4	45.0	6	n/a	n/a	n/a
770.0555011	0.75	4	45.0	13	0.75	n/a	-20
770.8095416	0.75	4	45.0	13	0.75	n/a	-20
771.5634216	0.75	4	45.0	13	0.75	n/a	140
772.3169388	0.75	4	45.0	13	0.75	n/a	-20
773.0846184	1	4	45.0	9	n/a	n/a	80
773.0846184	1	4	45.0	10	n/a	n/a	ONLL Correct
774.090717	n/a	4	45.0	7	n/a	n/a	16.5
775.0191809	n/a	5	46.0	3	n/a	n/a	n/a
775.0191809	9	5	46.0	4	n/a	n/a	9
784.0356094	2.5	5	46.0	5	n/a	n/a	2.5
784.3022884	n/a	3_5_0	46.0	8	9.283107500057667	1.0	-20
784.5183422	n/a	3_5_1	46.0	8	9.4991613002494	1.0	-40
784.7188856	n/a	3_5_2	46.0	8	9.699704700149596	1.0	-60
784.8856446	n/a	3_5_3	46.0	8	9.866463700309398	1.0	-80
785.052232	n/a	3_5_4	46.0	8	10.033051100093873	1.0	60
786.5510552	 n/a	5	46.0	6	n/a	n/a	n/a
786.5532584	0.75	5	46.0	13	0.75	n/a	-20
787.3052661	0.75	5	46.0	13	0.75	n/a	-20
788.0588055	0.75	5	46.0	13	0.75	n/a	-20
788.8117633	0.75	5	46.0	13	0.75	n/a	-20
789.5653095	0.75	5	46.0	13	0.75	n/a	140
790.3393984	1	5	46.0	9	n/a	n/a	60
790.3393984	1	5	46.0	10	n/a	n/a	ONLL Correct
791.3459888	n/a	5	46.0	7	n/a	n/a	17.25
792.2670944	n/a	5	47.0	3	n/a	n/a	n/a
792.2670944	9	5	47.0	4	n/a	n/a	9
801.2827432	2.5	5	47.0	5	n/a	n/a	2.5
801.5337195	n/a	6_5_0	47.0	8	9.266625099815428	1.0	-20
801.749512	n/a	6_5_1	47.0	8	9.482417599763721	1.0	120
801.9828591	n/a	6_5_2	47.0	8	9.715764699969439	1.0	100
802.2337631	n/a	6_5_3	47.0	8	9.966668699868023	1.0	80
802.4507716	n/a	6_5_4	47.0	8	10.183677199762316	-1.0	100
803.799555	 n/a	5	47.0	6	n/a	n/a	n/a
803.8017562	0.75	5	47.0	13	0.75	n/a	-20
804.556488	0.75	5	47.0	13	0.75	n/a	140
805.30963	0.75	5	47.0	13	0.75	n/a	-20
806.06247	0.75	5	47.0	13	0.75	n/a	-20
806.8156338	0.75	5	47.0	13	0.75	n/a	20
807.5892623	1	5	47.0	9	n/a	n/a	100
807.5892623	1	5	47.0	10	n/a	n/a	Aversive Pruning
808.5961535	n/a	5	47.0	7	n/a	n/a	17.25
809.5299196	n/a	3	48.0	3	n/a	n/a	n/a
809.5299196	9	3	48.0	4	n/a	n/a	9
818.5302921	2.5	3	48.0	5	n/a	n/a	2.5
818.8316793	n/a	1_3_0	48.0	8	9.301759699825196	1.0	140
819.0809916	n/a	1_3_1	48.0	8	9.55107200006023	1.0	120
819.2817144	n/a	1_3_2	48.0	8	9.751794800162317	1.0	100
821.0468035	 n/a	3	48.0	6	n/a	n/a	n/a
821.0490172	0.75	3	48.0	13	0.75	n/a	140
821.8019806	0.75	3	48.0	13	0.75	n/a	-20
822.5551845	0.75	3	48.0	13	0.75	n/a	-20
823.32728	1	3	48.0	9	n/a	n/a	100
823.32728	1	3	48.0	10	n/a	n/a	ONLL Correct
824.3332376	n/a	3	48.0	7	n/a	n/a	15.75
825.2782546	n/a	4	49.0	3	n/a	n/a	n/a
825.2782546	9	4	49.0	4	n/a	n/a	9
834.2947116	2.5	4	49.0	5	n/a	n/a	2.5
834.5454543	n/a	6_4_0	49.0	8	9.267199699766934	1.0	-20
834.8456678	n/a	6_4_1	49.0	8	9.567413199692963	1.0	120
835.1122095	n/a	6_4_2	49.0	8	9.833954900037496	1.0	100
835.3615443	n/a	6_4_3	49.0	8	10.08328969962895	1.0	80
836.7948851	 n/a	4	49.0	6	n/a	n/a	n/a
836.7973292	0.75	4	49.0	13	0.75	n/a	-20
837.5507017	0.75	4	49.0	13	0.75	n/a	140
838.3039138	0.75	4	49.0	13	0.75	n/a	-20
839.0585955	0.75	4	49.0	13	0.75	n/a	-20
839.8312603	1	4	49.0	9	n/a	n/a	80
839.8312603	1	4	49.0	10	n/a	n/a	ONLL Correct
840.8364395	n/a	4	49.0	7	n/a	n/a	16.5
841.7780951	n/a	4	50.0	3	n/a	n/a	n/a
841.7780951	9	4	50.0	4	n/a	n/a	9
850.7933356	2.5	4	50.0	5	n/a	n/a	2.5
851.1770274	n/a	2_4_0	50.0	8	9.39893230004236	1.0	-20
851.5436009	n/a	2_4_1	50.0	8	9.765505800023677	1.0	-40
851.8940338	n/a	2_4_2	50.0	8	10.115938699804246	-1.0	-20
852.2278674	n/a	2_4_3	50.0	8	10.449772300198674	1.0	-40
853.3094924	 n/a	4	50.0	6	n/a	n/a	n/a
853.3114938	0.75	4	50.0	13	0.75	n/a	-20
854.0651224	0.75	4	50.0	13	0.75	n/a	-20
854.8187833	0.75	4	50.0	13	0.75	n/a	20
855.5728585	0.75	4	50.0	13	0.75	n/a	-20
856.3456406	1	4	50.0	9	n/a	n/a	-40
856.3456406	1	4	50.0	10	n/a	n/a	OLL Error
857.3525532	n/a	4	50.0	7	n/a	n/a	16.5
858.2758637	n/a	5	51.0	3	n/a	n/a	n/a
858.2758637	9	5	51.0	4	n/a	n/a	9
867.2911639	2.5	5	51.0	5	n/a	n/a	2.5
867.7751177	n/a	4_5_0	51.0	8	9.499253999907523	1.0	-20
868.1581242	n/a	4_5_1	51.0	8	9.882260499987753	1.0	-40
868.4591728	n/a	4_5_2	51.0	8	10.183309100102633	1.0	-60
868.7416098	n/a	4_5_3	51.0	8	10.465746100060644	1.0	80
868.9750177	n/a	4_5_4	51.0	8	10.699153999798	1.0	60
869.8073323	 n/a	5	51.0	6	n/a	n/a	n/a
869.8099172	0.75	5	51.0	13	0.75	n/a	-20
870.5635554	0.75	5	51.0	13	0.75	n/a	-20
871.3168865	0.75	5	51.0	13	0.75	n/a	-20
872.0704047	0.75	5	51.0	13	0.75	n/a	140
872.8231903	0.75	5	51.0	13	0.75	n/a	-20
873.5926873	1	5	51.0	9	n/a	n/a	60
873.5926873	1	5	51.0	10	n/a	n/a	ONLL Correct
874.5992777	n/a	5	51.0	7	n/a	n/a	17.25
875.5235134	n/a	3	52.0	3	n/a	n/a	n/a
875.5235134	9	3	52.0	4	n/a	n/a	9
884.5388979	2.5	3	52.0	5	n/a	n/a	2.5
885.006377	n/a	4_3_0	52.0	8	9.482863599900156	1.0	-20
885.2897724	n/a	4_3_1	52.0	8	9.766259000170978	-1.0	-90
885.572458	n/a	4_3_2	52.0	8	10.048944599926473	1.0	50
887.0553746	 n/a	3	52.0	6	n/a	n/a	n/a
887.0577697	0.75	3	52.0	13	0.75	n/a	-20
887.8114332	0.75	3	52.0	13	0.75	n/a	-70
888.5653978	0.75	3	52.0	13	0.75	n/a	140
889.3403443	1	3	52.0	9	n/a	n/a	50
889.3403443	1	3	52.0	10	n/a	n/a	OLL Correct
890.3473097	n/a	3	52.0	7	n/a	n/a	15.75
891.271226	n/a	3	53.0	3	n/a	n/a	n/a
891.271226	9	3	53.0	4	n/a	n/a	9
900.2865337	2.5	3	53.0	5	n/a	n/a	2.5
900.5544593	n/a	5_3_0	53.0	8	9.283233299851418	1.0	-20
900.8372632	n/a	5_3_1	53.0	8	9.566037199925633	1.0	-40
901.1036387	n/a	5_3_2	53.0	8	9.832412700168787	1.0	100
902.8031842	 n/a	3	53.0	6	n/a	n/a	n/a
902.8052391	0.75	3	53.0	13	0.75	n/a	-20
903.5592786	0.75	3	53.0	13	0.75	n/a	-20
904.3119317	0.75	3	53.0	13	0.75	n/a	140
905.0833891	1	3	53.0	9	n/a	n/a	100
905.0833891	1	3	53.0	10	n/a	n/a	ONLL Correct
906.0902563	n/a	3	53.0	7	n/a	n/a	15.75
907.0199127	n/a	4	54.0	3	n/a	n/a	n/a
907.0199127	9	4	54.0	4	n/a	n/a	9
916.035329	2.5	4	54.0	5	n/a	n/a	2.5
916.2855178	n/a	3_4_0	54.0	8	9.265605099964887	1.0	-20
916.5689836	n/a	3_4_1	54.0	8	9.549070899840443	1.0	-40
916.8685126	n/a	3_4_2	54.0	8	9.848599900025873	-1.0	-110
917.16876	n/a	3_4_3	54.0	8	10.14884730009362	1.0	30
918.5515879	 n/a	4	54.0	6	n/a	n/a	n/a
918.5536585	0.75	4	54.0	13	0.75	n/a	-20
919.3087077	0.75	4	54.0	13	0.75	n/a	-20
920.0631333	0.75	4	54.0	13	0.75	n/a	-70
920.8172855	0.75	4	54.0	13	0.75	n/a	140
921.5873676	1	4	54.0	9	n/a	n/a	30
921.5873676	1	4	54.0	10	n/a	n/a	OLL Correct
922.5950453	n/a	4	54.0	7	n/a	n/a	16.5
923.5172007	n/a	3	55.0	3	n/a	n/a	n/a
923.5172007	9	3	55.0	4	n/a	n/a	9
932.5329266	2.5	3	55.0	5	n/a	n/a	2.5
932.9008674	n/a	2_3_0	55.0	8	9.383666700217873	1.0	-20
933.1823523	n/a	2_3_1	55.0	8	9.665151600260288	1.0	-40
933.4655986	n/a	2_3_2	55.0	8	9.948397899977863	-1.0	-20
935.049238	 n/a	3	55.0	6	n/a	n/a	n/a
935.0509276	0.75	3	55.0	13	0.75	n/a	-20
935.805327	0.75	3	55.0	13	0.75	n/a	-20
936.5587107	0.75	3	55.0	13	0.75	n/a	20
937.3327538	1	3	55.0	9	n/a	n/a	-20
937.3327538	1	3	55.0	10	n/a	n/a	Aversive Pruning
938.3392416	n/a	3	55.0	7	n/a	n/a	15.75
939.2652767	n/a	3	56.0	3	n/a	n/a	n/a
939.2652767	9	3	56.0	4	n/a	n/a	9
948.2809246	2.5	3	56.0	5	n/a	n/a	2.5
950.1811068	n/a	6_3_0	56.0	8	10.9158300999552	1.0	-20
950.3978478	n/a	6_3_1	56.0	8	11.132571099791674	1.0	120
950.7145238	n/a	6_3_2	56.0	8	11.44924709992483	-1.0	50
950.7968731	 n/a	3	56.0	6	n/a	n/a	n/a
950.7991766	0.75	3	56.0	13	0.75	n/a	-20
951.552565	0.75	3	56.0	13	0.75	n/a	140
952.3067065	0.75	3	56.0	13	0.75	n/a	-70
953.0771404	1	3	56.0	9	n/a	n/a	50
953.0771404	1	3	56.0	10	n/a	n/a	ONLL Error
954.0839075	n/a	3	56.0	7	n/a	n/a	15.75
955.0278665	n/a	5	57.0	3	n/a	n/a	n/a
955.0278665	9	5	57.0	4	n/a	n/a	9
964.0284666	2.5	5	57.0	5	n/a	n/a	2.5
964.195987	n/a	5_5_0	57.0	8	9.168120500165971	1.0	-20
964.4130137	n/a	5_5_1	57.0	8	9.385147199966012	1.0	-40
964.6124763	n/a	5_5_2	57.0	8	9.584609800018368	1.0	100
964.7960968	n/a	5_5_3	57.0	8	9.76823029993102	1.0	80
965.1796566	n/a	5_5_4	57.0	8	10.15179010014981	1.0	60
966.5286227	 n/a	5	57.0	6	n/a	n/a	n/a
966.5306276	0.75	5	57.0	13	0.75	n/a	-20
967.2834144	0.75	5	57.0	13	0.75	n/a	-20
968.0364203	0.75	5	57.0	13	0.75	n/a	140
968.7909951	0.75	5	57.0	13	0.75	n/a	-20
969.5441405	0.75	5	57.0	13	0.75	n/a	-20
970.3130657	1	5	57.0	9	n/a	n/a	60
970.3130657	1	5	57.0	10	n/a	n/a	Aversive Pruning
971.3197625	n/a	5	57.0	7	n/a	n/a	17.25
972.2761212	n/a	5	58.0	3	n/a	n/a	n/a
972.2761212	9	5	58.0	4	n/a	n/a	9
981.2761339	2.5	5	58.0	5	n/a	n/a	2.5
981.5771193	n/a	1_5_0	58.0	8	9.300998100079596	1.0	140
981.7771625	n/a	1_5_1	58.0	8	9.501041300129144	1.0	120
981.9766338	n/a	1_5_2	58.0	8	9.700512600131331	1.0	100
982.1432446	n/a	1_5_3	58.0	8	9.867123399861155	1.0	80
982.3276645	n/a	1_5_4	58.0	8	10.051543300040066	1.0	60
983.7762445	 n/a	5	58.0	6	n/a	n/a	n/a
983.7783383	0.75	5	58.0	13	0.75	n/a	140
984.5320729	0.75	5	58.0	13	0.75	n/a	-20
985.285802	0.75	5	58.0	13	0.75	n/a	-20
986.0401785	0.75	5	58.0	13	0.75	n/a	-20
986.7942201	0.75	5	58.0	13	0.75	n/a	-20
987.5614403	1	5	58.0	9	n/a	n/a	60
987.5614403	1	5	58.0	10	n/a	n/a	OLL Error
988.5681803	n/a	5	58.0	7	n/a	n/a	17.25
989.5256731	n/a	5	59.0	3	n/a	n/a	n/a
989.5256731	9	5	59.0	4	n/a	n/a	9
998.5410208	2.5	5	59.0	5	n/a	n/a	2.5
999.1083723	n/a	2_5_0	59.0	8	9.582699199672787	1.0	-20
999.3580847	n/a	2_5_1	59.0	8	9.832411599811168	1.0	-40
999.624315	n/a	2_5_2	59.0	8	10.098641899880024	1.0	-60
999.8913721	n/a	2_5_3	59.0	8	10.365698999725284	-1.0	-130
1000.1910026	n/a	2_5_4	59.0	8	10.665329499635844	1.0	10
1001.0575253	 n/a	5	59.0	6	n/a	n/a	n/a
1001.0600721	0.75	5	59.0	13	0.75	n/a	-20
1001.8128395	0.75	5	59.0	13	0.75	n/a	-20
1002.5663468	0.75	5	59.0	13	0.75	n/a	-20
1003.3201762	0.75	5	59.0	13	0.75	n/a	-70
1004.0729007	0.75	5	59.0	13	0.75	n/a	140
1004.8438365	1	5	59.0	9	n/a	n/a	10
1004.8438365	1	5	59.0	10	n/a	n/a	OLL Correct
1005.8523473	n/a	5	59.0	7	n/a	n/a	17.25
1006.7732752	n/a	5	60.0	3	n/a	n/a	n/a
1006.7732752	9	5	60.0	4	n/a	n/a	9
1015.7881121	2.5	5	60.0	5	n/a	n/a	2.5
1016.4059625	n/a	3_5_0	60.0	8	9.632687299977988	1.0	-20
1016.8062041	n/a	3_5_1	60.0	8	10.032928899861874	1.0	-40
1017.0892369	n/a	3_5_2	60.0	8	10.315961699932815	1.0	-60
1017.356154	n/a	3_5_3	60.0	8	10.582878799643368	1.0	-80
1017.5562573	n/a	3_5_4	60.0	8	10.782982099801302	1.0	60
1018.2885811	 n/a	5	60.0	6	n/a	n/a	n/a
1018.2910629	0.75	5	60.0	13	0.75	n/a	-20
1019.0446096	0.75	5	60.0	13	0.75	n/a	-20
1019.7986898	0.75	5	60.0	13	0.75	n/a	-20
1020.5517481	0.75	5	60.0	13	0.75	n/a	-20
1021.3051666	0.75	5	60.0	13	0.75	n/a	140
1022.0779479	1	5	60.0	9	n/a	n/a	60
1022.0779479	1	5	60.0	10	n/a	n/a	ONLL Correct
1023.0857148	n/a	5	60.0	7	n/a	n/a	17.25
1024.0216613	n/a	4	61.0	3	n/a	n/a	n/a
1024.0216613	9	4	61.0	4	n/a	n/a	9
1033.0362943	2.5	4	61.0	5	n/a	n/a	2.5
1033.3207614	n/a	1_4_0	61.0	8	9.299100100062788	1.0	140
1033.5870519	n/a	1_4_1	61.0	8	9.565390599891543	1.0	120
1033.8706842	n/a	1_4_2	61.0	8	9.849022899754344	1.0	100
1034.7204058	n/a	1_4_3	61.0	8	10.698744500055911	-1.0	120
1035.5371075	 n/a	4	61.0	6	n/a	n/a	n/a
1035.5393739	0.75	4	61.0	13	0.75	n/a	140
1036.2921561	0.75	4	61.0	13	0.75	n/a	-20
1037.0459135	0.75	4	61.0	13	0.75	n/a	-20
1037.7989441	0.75	4	61.0	13	0.75	n/a	20
1038.5730763	1	4	61.0	9	n/a	n/a	120
1038.5730763	1	4	61.0	10	n/a	n/a	Aversive Pruning
1039.579542	n/a	4	61.0	7	n/a	n/a	16.5
1040.5193582	n/a	3	62.0	3	n/a	n/a	n/a
1040.5193582	9	3	62.0	4	n/a	n/a	9
1049.5345831	2.5	3	62.0	5	n/a	n/a	2.5
1049.8852746	n/a	3_3_0	62.0	8	9.36591640021652	1.0	-20
1050.1682534	n/a	3_3_1	62.0	8	9.64889519987628	-1.0	0
1050.4351464	n/a	3_3_2	62.0	8	9.91578820021823	1.0	-20
1052.051235	 n/a	3	62.0	6	n/a	n/a	n/a
1052.0541192	0.75	3	62.0	13	0.75	n/a	-20
1052.8080341	0.75	3	62.0	13	0.75	n/a	20
1053.5622018	0.75	3	62.0	13	0.75	n/a	-20
1054.3306787	1	3	62.0	9	n/a	n/a	-20
1054.3306787	1	3	62.0	10	n/a	n/a	Aversive Pruning
1055.3376283	n/a	3	62.0	7	n/a	n/a	15.75
1056.2672259	n/a	4	63.0	3	n/a	n/a	n/a
1056.2672259	9	4	63.0	4	n/a	n/a	9
1065.2827011	2.5	4	63.0	5	n/a	n/a	2.5
1065.5497283	n/a	4_4_0	63.0	8	9.282502399757504	1.0	-20
1065.7340529	n/a	4_4_1	63.0	8	9.46682700002566	1.0	-40
1065.9492598	n/a	4_4_2	63.0	8	9.682033899705855	1.0	-60
1066.3168095	n/a	4_4_3	63.0	8	10.04958359990269	1.0	80
1067.7987888	 n/a	4	63.0	6	n/a	n/a	n/a
1067.8006931	0.75	4	63.0	13	0.75	n/a	-20
1068.5537524	0.75	4	63.0	13	0.75	n/a	-20
1069.3073482	0.75	4	63.0	13	0.75	n/a	-20
1070.0606871	0.75	4	63.0	13	0.75	n/a	140
1070.8322649	1	4	63.0	9	n/a	n/a	80
1070.8322649	1	4	63.0	10	n/a	n/a	ONLL Correct
1071.8393778	n/a	4	63.0	7	n/a	n/a	16.5
1072.7655763	n/a	3	64.0	3	n/a	n/a	n/a
1072.7655763	9	3	64.0	4	n/a	n/a	9
1081.7816679	2.5	3	64.0	5	n/a	n/a	2.5
1082.1473989	n/a	4_3_0	64.0	8	9.381822600029407	1.0	-20
1082.4147148	n/a	4_3_1	64.0	8	9.649138499982657	-1.0	-90
1082.6810085	n/a	4_3_2	64.0	8	9.915432199835776	1.0	50
1084.2964753	 n/a	3	64.0	6	n/a	n/a	n/a
1084.2980146	0.75	3	64.0	13	0.75	n/a	-20
1085.0510576	0.75	3	64.0	13	0.75	n/a	-70
1085.8056628	0.75	3	64.0	13	0.75	n/a	140
1086.576257	1	3	64.0	9	n/a	n/a	50
1086.576257	1	3	64.0	10	n/a	n/a	OLL Correct
1087.5834892	n/a	3	64.0	7	n/a	n/a	15.75
1088.5281214	n/a	4	65.0	3	n/a	n/a	n/a
1088.5281214	9	4	65.0	4	n/a	n/a	9
1097.5282586	2.5	4	65.0	5	n/a	n/a	2.5
1097.8626256	n/a	5_4_0	65.0	8	9.33450419967994	1.0	-20
1098.1123915	n/a	5_4_1	65.0	8	9.58427010010928	1.0	-40
1098.3619485	n/a	5_4_2	65.0	8	9.833827099762855	1.0	100
1098.5791042	n/a	5_4_3	65.0	8	10.05098279984668	1.0	80
1100.0446785	 n/a	4	65.0	6	n/a	n/a	n/a
1100.0472421	0.75	4	65.0	13	0.75	n/a	-20
1100.801263	0.75	4	65.0	13	0.75	n/a	-20
1101.5542557	0.75	4	65.0	13	0.75	n/a	140
1102.3079519	0.75	4	65.0	13	0.75	n/a	-20
1103.0775453	1	4	65.0	9	n/a	n/a	80
1103.0775453	1	4	65.0	10	n/a	n/a	ONLL Correct
1104.0831743	n/a	4	65.0	7	n/a	n/a	16.5
1105.0278221	n/a	5	66.0	3	n/a	n/a	n/a
1105.0278221	9	5	66.0	4	n/a	n/a	9
1114.042805	2.5	5	66.0	5	n/a	n/a	2.5
1114.4939566	n/a	6_5_0	66.0	8	9.466134499758482	1.0	-20
1114.7603216	n/a	6_5_1	66.0	8	9.732499499805273	1.0	120
1115.0272699	n/a	6_5_2	66.0	8	9.9994477997534	1.0	100
1115.2604454	n/a	6_5_3	66.0	8	10.232623300049452	1.0	80
1115.5265869	n/a	6_5_4	66.0	8	10.498764799907805	1.0	60
1116.5593581	 n/a	5	66.0	6	n/a	n/a	n/a
1116.5614383	0.75	5	66.0	13	0.75	n/a	-20
1117.3143727	0.75	5	66.0	13	0.75	n/a	140
1118.06789	0.75	5	66.0	13	0.75	n/a	-20
1118.82111	0.75	5	66.0	13	0.75	n/a	-20
1119.5754108	0.75	5	66.0	13	0.75	n/a	-20
1120.3468825	1	5	66.0	9	n/a	n/a	60
1120.3468825	1	5	66.0	10	n/a	n/a	OLL Error
1121.3527571	n/a	5	66.0	7	n/a	n/a	17.25
1122.2755088	n/a	3	67.0	3	n/a	n/a	n/a
1122.2755088	9	3	67.0	4	n/a	n/a	9
1131.2908551	2.5	3	67.0	5	n/a	n/a	2.5
1131.9417908	n/a	1_3_0	67.0	8	9.666282000020146	1.0	140
1132.2410038	n/a	1_3_1	67.0	8	9.965495000127703	1.0	120
1132.5081483	n/a	1_3_2	67.0	8	10.232639499939976	1.0	100
1133.8072017	 n/a	3	67.0	6	n/a	n/a	n/a
1133.809487	0.75	3	67.0	13	0.75	n/a	140
1134.5621742	0.75	3	67.0	13	0.75	n/a	-20
1135.3159731	0.75	3	67.0	13	0.75	n/a	-20
1136.0870777	1	3	67.0	9	n/a	n/a	100
1136.0870777	1	3	67.0	10	n/a	n/a	ONLL Correct
1137.0938712	n/a	3	67.0	7	n/a	n/a	15.75
1138.0230199	n/a	4	68.0	3	n/a	n/a	n/a
1138.0230199	9	4	68.0	4	n/a	n/a	9
1147.038597	2.5	4	68.0	5	n/a	n/a	2.5
1147.4730196	n/a	6_4_0	68.0	8	9.449999699834734	1.0	-20
1147.7232251	n/a	6_4_1	68.0	8	9.700205199886113	1.0	120
1147.9561613	n/a	6_4_2	68.0	8	9.933141400106253	1.0	100
1148.2222852	n/a	6_4_3	68.0	8	10.199265299830586	1.0	80
1149.5547127	 n/a	4	68.0	6	n/a	n/a	n/a
1149.5561857	0.75	4	68.0	13	0.75	n/a	-20
1150.3096447	0.75	4	68.0	13	0.75	n/a	140
1151.0623484	0.75	4	68.0	13	0.75	n/a	-20
1151.8163174	0.75	4	68.0	13	0.75	n/a	-20
1152.5882079	1	4	68.0	9	n/a	n/a	80
1152.5882079	1	4	68.0	10	n/a	n/a	ONLL Correct
1153.5945853	n/a	4	68.0	7	n/a	n/a	16.5
1154.5212155	n/a	4	69.0	3	n/a	n/a	n/a
1154.5212155	9	4	69.0	4	n/a	n/a	9
1163.5369682	2.5	4	69.0	5	n/a	n/a	2.5
1164.1037367	n/a	2_4_0	69.0	8	9.582521200180055	1.0	-20
1164.5037648	n/a	2_4_1	69.0	8	9.982549300417306	1.0	-40
1164.8369909	n/a	2_4_2	69.0	8	10.315775400027633	-1.0	-20
1165.1701979	n/a	2_4_3	69.0	8	10.6489824000746	1.0	-40
1166.0532334	 n/a	4	69.0	6	n/a	n/a	n/a
1166.0560399	0.75	4	69.0	13	0.75	n/a	-20
1166.8103991	0.75	4	69.0	13	0.75	n/a	-20
1167.5633461	0.75	4	69.0	13	0.75	n/a	20
1168.3178946	0.75	4	69.0	13	0.75	n/a	-20
1169.0884733	1	4	69.0	9	n/a	n/a	-40
1169.0884733	1	4	69.0	10	n/a	n/a	OLL Error
1170.0953212	n/a	4	69.0	7	n/a	n/a	16.5
1171.0192706	n/a	5	70.0	3	n/a	n/a	n/a
1171.0192706	9	5	70.0	4	n/a	n/a	9
1180.0347228	2.5	5	70.0	5	n/a	n/a	2.5
1180.1689924	n/a	4_5_0	70.0	8	9.149721799883993	1.0	-20
1180.4183622	n/a	4_5_1	70.0	8	9.39909159997478	1.0	-40
1180.6516644	n/a	4_5_2	70.0	8	9.632393799722196	1.0	-60
1180.9016458	n/a	4_5_3	70.0	8	9.882375199813398	1.0	80
1181.1349821	n/a	4_5_4	70.0	8	10.11571149993688	1.0	60
1182.5510459	 n/a	5	70.0	6	n/a	n/a	n/a
1182.552828	0.75	5	70.0	13	0.75	n/a	-20
1183.3060287	0.75	5	70.0	13	0.75	n/a	-20
1184.0597283	0.75	5	70.0	13	0.75	n/a	-20
1184.814324	0.75	5	70.0	13	0.75	n/a	140
1185.5667808	0.75	5	70.0	13	0.75	n/a	-20
1186.3368349	1	5	70.0	9	n/a	n/a	60
1186.3368349	1	5	70.0	10	n/a	n/a	ONLL Correct
1187.3450878	n/a	5	70.0	7	n/a	n/a	17.25
1188.266632	n/a	3	71.0	3	n/a	n/a	n/a
1188.266632	9	3	71.0	4	n/a	n/a	9
1197.2820327	2.5	3	71.0	5	n/a	n/a	2.5
1197.9659457	n/a	5_3_0	71.0	8	9.699313700199127	1.0	-20
1198.3160249	n/a	5_3_1	71.0	8	10.049392899964003	-1.0	0
1198.6336876	n/a	5_3_2	71.0	8	10.367055600043386	1.0	-20
1199.7821232	 n/a	3	71.0	6	n/a	n/a	n/a
1199.7846269	0.75	3	71.0	13	0.75	n/a	-20
1200.5385414	0.75	3	71.0	13	0.75	n/a	20
1201.2920307	0.75	3	71.0	13	0.75	n/a	-20
1202.0652	1	3	71.0	9	n/a	n/a	-20
1202.0652	1	3	71.0	10	n/a	n/a	ONLL Error
1203.0713934	n/a	3	71.0	7	n/a	n/a	15.75
1207.0356034	n/a	n/a	n/a	99	n/a	n/a	n/a
