onset	duration	trial_type	trial_number	bandit_num	mean_type	left_reward	right_reward	left_mean	right_mean	force_pos	response	response_time	points
n/a	n/a	h1	0.0	0.0	LH	40.0	64.0	40.0	52.0	L	left	3.73687000014	40.0
n/a	n/a	h1	0.0	1.0	LH	44.0	52.0	40.0	52.0	L	left	3.30425999989	84.0
n/a	n/a	h1	0.0	2.0	LH	40.0	48.0	40.0	52.0	R	right	1.25319499988	132.0
n/a	n/a	h1	0.0	3.0	LH	58.0	62.0	40.0	52.0	L	left	0.969599999953	190.0
n/a	n/a	h1	0.0	4.0	LH	52.0	40.0	40.0	52.0	X	left	1.65271499986	242.0
n/a	n/a	h6	1.0	0.0	LH	58.0	58.0	60.0	64.0	R	right	2.16090999986	300.0
n/a	n/a	h6	1.0	1.0	LH	59.0	60.0	60.0	64.0	L	left	0.803960000165	359.0
n/a	n/a	h6	1.0	2.0	LH	61.0	64.0	60.0	64.0	R	right	1.67824499984	423.0
n/a	n/a	h6	1.0	3.0	LH	55.0	56.0	60.0	64.0	R	right	1.47377999988	479.0
n/a	n/a	h6	1.0	4.0	LH	69.0	69.0	60.0	64.0	X	right	1.13282499998	548.0
n/a	n/a	h6	1.0	5.0	LH	58.0	77.0	60.0	64.0	X	right	0.901704999851	625.0
n/a	n/a	h6	1.0	6.0	LH	51.0	47.0	60.0	64.0	X	right	0.619079999859	672.0
n/a	n/a	h6	1.0	7.0	LH	52.0	56.0	60.0	64.0	X	right	1.71956999996	728.0
n/a	n/a	h6	1.0	8.0	LH	62.0	63.0	60.0	64.0	X	right	1.06931499997	791.0
n/a	n/a	h6	1.0	9.0	LH	61.0	72.0	60.0	64.0	X	right	0.868775000097	863.0
n/a	n/a	h1	2.0	0.0	LH	48.0	67.0	40.0	70.0	R	right	0.484859999968	930.0
n/a	n/a	h1	2.0	1.0	LH	47.0	62.0	40.0	70.0	L	left	1.40425499994	977.0
n/a	n/a	h1	2.0	2.0	LH	39.0	62.0	40.0	70.0	R	right	1.75468500005	1039.0
n/a	n/a	h1	2.0	3.0	LH	50.0	65.0	40.0	70.0	L	left	0.774664999917	1089.0
n/a	n/a	h1	2.0	4.0	LH	35.0	67.0	40.0	70.0	X	right	1.77789499983	1156.0
n/a	n/a	h1	3.0	0.0	LH	31.0	44.0	28.0	40.0	R	right	0.440079999855	1200.0
n/a	n/a	h1	3.0	1.0	LH	27.0	39.0	28.0	40.0	L	left	2.58707000013	1227.0
n/a	n/a	h1	3.0	2.0	LH	25.0	54.0	28.0	40.0	R	right	0.551685000071	1281.0
n/a	n/a	h1	3.0	3.0	LH	29.0	30.0	28.0	40.0	L	left	0.66888500005	1310.0
n/a	n/a	h1	3.0	4.0	LH	29.0	47.0	28.0	40.0	X	right	1.53600000008	1357.0
n/a	n/a	h1	4.0	0.0	HL	67.0	22.0	60.0	30.0	R	right	1.02199500008	1379.0
n/a	n/a	h1	4.0	1.0	HL	55.0	38.0	60.0	30.0	R	right	3.75921999989	1417.0
n/a	n/a	h1	4.0	2.0	HL	83.0	34.0	60.0	30.0	R	right	0.558865000028	1451.0
n/a	n/a	h1	4.0	3.0	HL	67.0	27.0	60.0	30.0	L	left	1.82776000001	1518.0
n/a	n/a	h1	4.0	4.0	HL	64.0	30.0	60.0	30.0	X	right	3.25471000001	1548.0
n/a	n/a	h1	5.0	0.0	HL	75.0	55.0	72.0	60.0	L	left	0.409100000048	1623.0
n/a	n/a	h1	5.0	1.0	HL	69.0	58.0	72.0	60.0	R	right	189.438105	1681.0
n/a	n/a	h1	5.0	2.0	HL	62.0	75.0	72.0	60.0	L	left	1.25216999999	1743.0
n/a	n/a	h1	5.0	3.0	HL	69.0	50.0	72.0	60.0	R	right	0.518029999919	1793.0
n/a	n/a	h1	5.0	4.0	HL	81.0	50.0	72.0	60.0	X	left	2.45757000009	1874.0
n/a	n/a	h1	6.0	0.0	HL	60.0	66.0	68.0	60.0	R	right	0.603679999942	1940.0
n/a	n/a	h1	6.0	1.0	HL	76.0	54.0	68.0	60.0	L	left	1.52331000008	2016.0
n/a	n/a	h1	6.0	2.0	HL	62.0	51.0	68.0	60.0	L	left	0.369010000024	2078.0
n/a	n/a	h1	6.0	3.0	HL	57.0	44.0	68.0	60.0	R	right	0.522665000055	2122.0
n/a	n/a	h1	6.0	4.0	HL	63.0	47.0	68.0	60.0	X	left	3.65240499983	2185.0
n/a	n/a	h1	7.0	0.0	HL	39.0	32.0	44.0	40.0	L	left	0.584484999999	2224.0
n/a	n/a	h1	7.0	1.0	HL	49.0	52.0	44.0	40.0	L	left	0.359304999933	2273.0
n/a	n/a	h1	7.0	2.0	HL	39.0	32.0	44.0	40.0	L	left	0.260580000002	2312.0
n/a	n/a	h1	7.0	3.0	HL	36.0	47.0	44.0	40.0	R	right	1.01853499981	2359.0
n/a	n/a	h1	7.0	4.0	HL	39.0	37.0	44.0	40.0	X	left	1.28535500006	2398.0
n/a	n/a	h6	8.0	0.0	HL	96.0	65.0	90.0	60.0	L	left	0.510530000087	2494.0
n/a	n/a	h6	8.0	1.0	HL	88.0	57.0	90.0	60.0	L	left	0.368855000008	2582.0
n/a	n/a	h6	8.0	2.0	HL	84.0	59.0	90.0	60.0	R	right	0.334864999866	2641.0
n/a	n/a	h6	8.0	3.0	HL	76.0	67.0	90.0	60.0	R	right	0.349339999957	2708.0
n/a	n/a	h6	8.0	4.0	HL	99.0	71.0	90.0	60.0	X	left	1.8430949999	2807.0
n/a	n/a	h6	8.0	5.0	HL	92.0	41.0	90.0	60.0	X	left	0.498249999946	2899.0
n/a	n/a	h6	8.0	6.0	HL	81.0	65.0	90.0	60.0	X	left	0.399509999901	2980.0
n/a	n/a	h6	8.0	7.0	HL	95.0	52.0	90.0	60.0	X	left	0.401469999924	3075.0
n/a	n/a	h6	8.0	8.0	HL	90.0	70.0	90.0	60.0	X	left	0.48442000011	3165.0
n/a	n/a	h6	8.0	9.0	HL	99.0	56.0	90.0	60.0	X	left	0.417055000085	3264.0
n/a	n/a	h6	9.0	0.0	HL	39.0	36.0	40.0	36.0	R	right	0.333594999975	3300.0
n/a	n/a	h6	9.0	1.0	HL	31.0	21.0	40.0	36.0	R	right	0.452155000065	3321.0
n/a	n/a	h6	9.0	2.0	HL	46.0	27.0	40.0	36.0	L	left	0.535880000098	3367.0
n/a	n/a	h6	9.0	3.0	HL	26.0	50.0	40.0	36.0	L	left	0.451649999944	3393.0
n/a	n/a	h6	9.0	4.0	HL	41.0	28.0	40.0	36.0	X	left	2.28584000003	3434.0
n/a	n/a	h6	9.0	5.0	HL	35.0	37.0	40.0	36.0	X	left	0.484459999949	3469.0
n/a	n/a	h6	9.0	6.0	HL	36.0	38.0	40.0	36.0	X	left	0.217734999955	3505.0
n/a	n/a	h6	9.0	7.0	HL	46.0	22.0	40.0	36.0	X	left	0.100869999966	3551.0
n/a	n/a	h6	9.0	8.0	HL	35.0	32.0	40.0	36.0	X	left	0.117605000036	3586.0
n/a	n/a	h6	9.0	9.0	HL	37.0	30.0	40.0	36.0	X	left	1.21832999983	3623.0
n/a	n/a	h1	10.0	0.0	HL	70.0	46.0	60.0	40.0	R	right	0.718329999829	3669.0
n/a	n/a	h1	10.0	1.0	HL	54.0	36.0	60.0	40.0	R	right	0.399054999929	3705.0
n/a	n/a	h1	10.0	2.0	HL	46.0	26.0	60.0	40.0	R	right	0.43274999992	3731.0
n/a	n/a	h1	10.0	3.0	HL	68.0	32.0	60.0	40.0	L	left	0.774340000004	3799.0
n/a	n/a	h1	10.0	4.0	HL	61.0	46.0	60.0	40.0	X	left	1.12078500004	3860.0
n/a	n/a	h1	11.0	0.0	HL	30.0	11.0	40.0	10.0	R	right	0.45120000001	3871.0
n/a	n/a	h1	11.0	1.0	HL	39.0	7.0	40.0	10.0	L	left	0.740119999973	3910.0
n/a	n/a	h1	11.0	2.0	HL	45.0	1.0	40.0	10.0	R	right	1.02507500001	3911.0
n/a	n/a	h1	11.0	3.0	HL	34.0	9.0	40.0	10.0	L	left	0.560635000002	3945.0
n/a	n/a	h1	11.0	4.0	HL	33.0	19.0	40.0	10.0	X	left	1.16990500013	3978.0
n/a	n/a	h6	12.0	0.0	LH	27.0	80.0	30.0	60.0	R	right	0.336359999841	4058.0
n/a	n/a	h6	12.0	1.0	LH	40.0	61.0	30.0	60.0	R	right	0.754015000071	4119.0
n/a	n/a	h6	12.0	2.0	LH	20.0	58.0	30.0	60.0	L	left	0.320724999998	4139.0
n/a	n/a	h6	12.0	3.0	LH	25.0	65.0	30.0	60.0	L	left	0.422315000091	4164.0
n/a	n/a	h6	12.0	4.0	LH	34.0	60.0	30.0	60.0	X	right	1.2763100001	4224.0
n/a	n/a	h6	12.0	5.0	LH	33.0	53.0	30.0	60.0	X	right	0.515919999918	4277.0
n/a	n/a	h6	12.0	6.0	LH	33.0	73.0	30.0	60.0	X	right	0.436519999988	4350.0
n/a	n/a	h6	12.0	7.0	LH	18.0	45.0	30.0	60.0	X	right	0.338380000088	4395.0
n/a	n/a	h6	12.0	8.0	LH	37.0	68.0	30.0	60.0	X	right	0.372380000073	4463.0
n/a	n/a	h6	12.0	9.0	LH	33.0	60.0	30.0	60.0	X	right	0.117460000096	4523.0
n/a	n/a	h6	13.0	0.0	LH	58.0	58.0	60.0	64.0	R	right	0.490900000092	4581.0
n/a	n/a	h6	13.0	1.0	LH	59.0	60.0	60.0	64.0	L	left	0.290024999995	4640.0
n/a	n/a	h6	13.0	2.0	LH	61.0	64.0	60.0	64.0	R	right	0.767489999998	4704.0
n/a	n/a	h6	13.0	3.0	LH	55.0	56.0	60.0	64.0	R	right	1.33811999997	4760.0
n/a	n/a	h6	13.0	4.0	LH	73.0	70.0	60.0	64.0	X	right	0.639725000132	4830.0
n/a	n/a	h6	13.0	5.0	LH	69.0	59.0	60.0	64.0	X	right	0.436355000129	4889.0
n/a	n/a	h6	13.0	6.0	LH	58.0	75.0	60.0	64.0	X	right	0.134400000097	4964.0
n/a	n/a	h6	13.0	7.0	LH	61.0	68.0	60.0	64.0	X	right	0.385139999911	5032.0
n/a	n/a	h6	13.0	8.0	LH	58.0	61.0	60.0	64.0	X	right	0.37326500006	5093.0
n/a	n/a	h6	13.0	9.0	LH	62.0	79.0	60.0	64.0	X	right	0.499010000145	5172.0
n/a	n/a	h6	14.0	0.0	LH	44.0	39.0	40.0	48.0	R	right	0.635149999987	5211.0
n/a	n/a	h6	14.0	1.0	LH	50.0	55.0	40.0	48.0	R	right	1.33689499996	5266.0
n/a	n/a	h6	14.0	2.0	LH	53.0	56.0	40.0	48.0	L	left	0.251264999853	5319.0
n/a	n/a	h6	14.0	3.0	LH	49.0	58.0	40.0	48.0	R	right	0.475370000117	5377.0
n/a	n/a	h6	14.0	4.0	LH	40.0	44.0	40.0	48.0	X	right	1.2683600001	5421.0
n/a	n/a	h6	14.0	5.0	LH	43.0	57.0	40.0	48.0	X	right	0.805884999922	5478.0
n/a	n/a	h6	14.0	6.0	LH	39.0	43.0	40.0	48.0	X	right	0.272325000027	5521.0
n/a	n/a	h6	14.0	7.0	LH	43.0	56.0	40.0	48.0	X	right	0.0682700001635	5577.0
n/a	n/a	h6	14.0	8.0	LH	23.0	56.0	40.0	48.0	X	right	0.217004999984	5633.0
n/a	n/a	h6	14.0	9.0	LH	42.0	49.0	40.0	48.0	X	left	0.502839999972	5675.0
n/a	n/a	h1	15.0	0.0	HL	65.0	59.0	68.0	60.0	L	left	0.704314999981	5740.0
n/a	n/a	h1	15.0	1.0	HL	57.0	58.0	68.0	60.0	R	right	0.816110000014	5798.0
n/a	n/a	h1	15.0	2.0	HL	54.0	48.0	68.0	60.0	L	left	0.951499999966	5852.0
n/a	n/a	h1	15.0	3.0	HL	70.0	61.0	68.0	60.0	L	left	0.698749999981	5922.0
n/a	n/a	h1	15.0	4.0	HL	69.0	51.0	68.0	60.0	X	right	2.10216000001	5973.0
n/a	n/a	h6	16.0	0.0	LH	72.0	71.0	60.0	64.0	L	left	0.450320000062	6045.0
n/a	n/a	h6	16.0	1.0	LH	49.0	87.0	60.0	64.0	L	left	0.451645000139	6094.0
n/a	n/a	h6	16.0	2.0	LH	61.0	70.0	60.0	64.0	R	right	0.768145000096	6164.0
n/a	n/a	h6	16.0	3.0	LH	61.0	76.0	60.0	64.0	R	right	0.373295000056	6240.0
n/a	n/a	h6	16.0	4.0	LH	71.0	66.0	60.0	64.0	X	right	2.22046500002	6306.0
n/a	n/a	h6	16.0	5.0	LH	65.0	59.0	60.0	64.0	X	right	0.334379999898	6365.0
n/a	n/a	h6	16.0	6.0	LH	65.0	50.0	60.0	64.0	X	right	0.151194999926	6415.0
n/a	n/a	h6	16.0	7.0	LH	56.0	76.0	60.0	64.0	X	right	0.400660000043	6491.0
n/a	n/a	h6	16.0	8.0	LH	58.0	59.0	60.0	64.0	X	right	0.217010000022	6550.0
n/a	n/a	h6	16.0	9.0	LH	71.0	64.0	60.0	64.0	X	right	0.953160000034	6614.0
n/a	n/a	h6	17.0	0.0	LH	55.0	58.0	40.0	52.0	L	left	1.13577499986	6669.0
n/a	n/a	h6	17.0	1.0	LH	32.0	39.0	40.0	52.0	R	right	0.519989999942	6708.0
n/a	n/a	h6	17.0	2.0	LH	52.0	53.0	40.0	52.0	L	left	0.173170000082	6760.0
n/a	n/a	h6	17.0	3.0	LH	62.0	54.0	40.0	52.0	R	right	0.303094999865	6814.0
n/a	n/a	h6	17.0	4.0	LH	32.0	60.0	40.0	52.0	X	left	1.29132499988	6846.0
n/a	n/a	h6	17.0	5.0	LH	45.0	51.0	40.0	52.0	X	left	0.271384999854	6891.0
n/a	n/a	h6	17.0	6.0	LH	46.0	54.0	40.0	52.0	X	left	0.226604999974	6937.0
n/a	n/a	h6	17.0	7.0	LH	43.0	58.0	40.0	52.0	X	left	0.337735000066	6980.0
n/a	n/a	h6	17.0	8.0	LH	47.0	61.0	40.0	52.0	X	left	0.588084999938	7027.0
n/a	n/a	h6	17.0	9.0	LH	48.0	45.0	40.0	52.0	X	left	0.160105000017	7075.0
n/a	n/a	h6	18.0	0.0	HL	28.0	15.0	40.0	20.0	L	left	0.42238000012	7103.0
n/a	n/a	h6	18.0	1.0	HL	53.0	16.0	40.0	20.0	L	left	0.558595000068	7156.0
n/a	n/a	h6	18.0	2.0	HL	55.0	28.0	40.0	20.0	L	left	0.550224999897	7211.0
n/a	n/a	h6	18.0	3.0	HL	53.0	28.0	40.0	20.0	R	right	0.535655000014	7239.0
n/a	n/a	h6	18.0	4.0	HL	53.0	3.0	40.0	20.0	X	left	1.12002500007	7292.0
n/a	n/a	h6	18.0	5.0	HL	40.0	15.0	40.0	20.0	X	left	0.466569999931	7332.0
n/a	n/a	h6	18.0	6.0	HL	45.0	4.0	40.0	20.0	X	left	0.400399999926	7377.0
n/a	n/a	h6	18.0	7.0	HL	41.0	20.0	40.0	20.0	X	left	0.371654999908	7418.0
n/a	n/a	h6	18.0	8.0	HL	43.0	25.0	40.0	20.0	X	left	0.333085000049	7461.0
n/a	n/a	h6	18.0	9.0	HL	47.0	26.0	40.0	20.0	X	left	0.634730000049	7508.0
n/a	n/a	h1	19.0	0.0	LH	66.0	43.0	56.0	60.0	L	left	0.451880000066	7574.0
n/a	n/a	h1	19.0	1.0	LH	33.0	67.0	56.0	60.0	R	right	0.724219999975	7641.0
n/a	n/a	h1	19.0	2.0	LH	42.0	59.0	56.0	60.0	L	left	0.902514999965	7683.0
n/a	n/a	h1	19.0	3.0	LH	55.0	64.0	56.0	60.0	R	right	0.727120000171	7747.0
n/a	n/a	h1	19.0	4.0	LH	47.0	58.0	56.0	60.0	X	right	2.40378000005	7805.0
n/a	n/a	h1	20.0	0.0	LH	25.0	38.0	32.0	40.0	L	left	0.442095000064	7830.0
n/a	n/a	h1	20.0	1.0	LH	29.0	57.0	32.0	40.0	L	left	0.598955000052	7859.0
n/a	n/a	h1	20.0	2.0	LH	44.0	23.0	32.0	40.0	R	right	1.17214499996	7882.0
n/a	n/a	h1	20.0	3.0	LH	36.0	31.0	32.0	40.0	L	left	0.686135000084	7918.0
n/a	n/a	h1	20.0	4.0	LH	39.0	48.0	32.0	40.0	X	left	1.47014499991	7957.0
n/a	n/a	h6	21.0	0.0	HL	43.0	35.0	40.0	28.0	R	right	0.369684999809	7992.0
n/a	n/a	h6	21.0	1.0	HL	31.0	21.0	40.0	28.0	R	right	0.453849999933	8013.0
n/a	n/a	h6	21.0	2.0	HL	40.0	28.0	40.0	28.0	R	right	0.442190000089	8041.0
n/a	n/a	h6	21.0	3.0	HL	36.0	23.0	40.0	28.0	L	left	0.387614999898	8077.0
n/a	n/a	h6	21.0	4.0	HL	40.0	27.0	40.0	28.0	X	right	1.10201000003	8104.0
n/a	n/a	h6	21.0	5.0	HL	46.0	20.0	40.0	28.0	X	right	1.30187000008	8124.0
n/a	n/a	h6	21.0	6.0	HL	50.0	21.0	40.0	28.0	X	right	0.40101999999	8145.0
n/a	n/a	h6	21.0	7.0	HL	41.0	37.0	40.0	28.0	X	left	0.534744999837	8186.0
n/a	n/a	h6	21.0	8.0	HL	44.0	19.0	40.0	28.0	X	right	0.888799999841	8205.0
n/a	n/a	h6	21.0	9.0	HL	37.0	25.0	40.0	28.0	X	right	1.66845	8230.0
n/a	n/a	h1	22.0	0.0	LH	32.0	76.0	40.0	60.0	L	left	1.08163499995	8262.0
n/a	n/a	h1	22.0	1.0	LH	37.0	65.0	40.0	60.0	R	right	32.006845	8327.0
n/a	n/a	h1	22.0	2.0	LH	46.0	68.0	40.0	60.0	L	left	1.67002000008	8373.0
n/a	n/a	h1	22.0	3.0	LH	37.0	69.0	40.0	60.0	R	right	1.22158999997	8442.0
n/a	n/a	h1	22.0	4.0	LH	40.0	53.0	40.0	60.0	X	right	1.02429999993	8495.0
n/a	n/a	h6	23.0	0.0	HL	49.0	36.0	60.0	40.0	L	left	1.31881000008	8544.0
n/a	n/a	h6	23.0	1.0	HL	68.0	43.0	60.0	40.0	R	right	1.80554999993	8587.0
n/a	n/a	h6	23.0	2.0	HL	55.0	40.0	60.0	40.0	L	left	0.617809999967	8642.0
n/a	n/a	h6	23.0	3.0	HL	67.0	41.0	60.0	40.0	R	right	1.9395349999	8683.0
n/a	n/a	h6	23.0	4.0	HL	49.0	34.0	60.0	40.0	X	left	1.74182999996	8732.0
n/a	n/a	h6	23.0	5.0	HL	57.0	35.0	60.0	40.0	X	left	0.566485000076	8789.0
n/a	n/a	h6	23.0	6.0	HL	55.0	50.0	60.0	40.0	X	left	0.307714999886	8844.0
n/a	n/a	h6	23.0	7.0	HL	54.0	28.0	60.0	40.0	X	left	0.194409999996	8898.0
n/a	n/a	h6	23.0	8.0	HL	66.0	35.0	60.0	40.0	X	left	0.321779999882	8964.0
n/a	n/a	h6	23.0	9.0	HL	54.0	40.0	60.0	40.0	X	left	0.432670000009	9018.0
n/a	n/a	h6	24.0	0.0	LH	40.0	38.0	40.0	48.0	L	left	0.520765000023	9058.0
n/a	n/a	h6	24.0	1.0	LH	37.0	44.0	40.0	48.0	L	left	0.518520000158	9095.0
n/a	n/a	h6	24.0	2.0	LH	60.0	44.0	40.0	48.0	R	right	0.984255000018	9139.0
n/a	n/a	h6	24.0	3.0	LH	42.0	52.0	40.0	48.0	R	right	1.96973000001	9191.0
n/a	n/a	h6	24.0	4.0	LH	52.0	55.0	40.0	48.0	X	right	1.83616999979	9246.0
n/a	n/a	h6	24.0	5.0	LH	46.0	51.0	40.0	48.0	X	right	0.284560000058	9297.0
n/a	n/a	h6	24.0	6.0	LH	50.0	51.0	40.0	48.0	X	right	0.568369999994	9348.0
n/a	n/a	h6	24.0	7.0	LH	47.0	34.0	40.0	48.0	X	right	0.537675000029	9382.0
n/a	n/a	h6	24.0	8.0	LH	30.0	49.0	40.0	48.0	X	right	0.18913500011	9431.0
n/a	n/a	h6	24.0	9.0	LH	29.0	53.0	40.0	48.0	X	right	1.02086999989	9484.0
n/a	n/a	h6	25.0	0.0	LH	25.0	48.0	20.0	40.0	L	left	0.453449999914	9509.0
n/a	n/a	h6	25.0	1.0	LH	20.0	48.0	20.0	40.0	R	right	0.318750000093	9557.0
n/a	n/a	h6	25.0	2.0	LH	8.0	28.0	20.0	40.0	R	right	0.60206999979	9585.0
n/a	n/a	h6	25.0	3.0	LH	22.0	33.0	20.0	40.0	L	left	1.10164999985	9607.0
n/a	n/a	h6	25.0	4.0	LH	29.0	28.0	20.0	40.0	X	right	1.15426999982	9635.0
n/a	n/a	h6	25.0	5.0	LH	16.0	39.0	20.0	40.0	X	right	0.700034999987	9674.0
n/a	n/a	h6	25.0	6.0	LH	41.0	51.0	20.0	40.0	X	right	0.417720000027	9725.0
n/a	n/a	h6	25.0	7.0	LH	22.0	35.0	20.0	40.0	X	left	0.200729999924	9747.0
n/a	n/a	h6	25.0	8.0	LH	30.0	50.0	20.0	40.0	X	left	1.55872500013	9777.0
n/a	n/a	h6	25.0	9.0	LH	14.0	34.0	20.0	40.0	X	left	1.13425999996	9791.0
n/a	n/a	h6	26.0	0.0	LH	69.0	46.0	56.0	60.0	R	right	0.368430000031	9837.0
n/a	n/a	h6	26.0	1.0	LH	65.0	53.0	56.0	60.0	L	left	0.711434999947	9902.0
n/a	n/a	h6	26.0	2.0	LH	57.0	59.0	56.0	60.0	L	left	0.519384999992	9959.0
n/a	n/a	h6	26.0	3.0	LH	62.0	60.0	56.0	60.0	L	left	0.434675000142	10021.0
n/a	n/a	h6	26.0	4.0	LH	50.0	63.0	56.0	60.0	X	right	1.02286999999	10084.0
n/a	n/a	h6	26.0	5.0	LH	55.0	68.0	56.0	60.0	X	right	1.71018499997	10152.0
n/a	n/a	h6	26.0	6.0	LH	59.0	64.0	56.0	60.0	X	right	1.5391650002	10216.0
n/a	n/a	h6	26.0	7.0	LH	46.0	52.0	56.0	60.0	X	right	1.67803000007	10268.0
n/a	n/a	h6	26.0	8.0	LH	68.0	58.0	56.0	60.0	X	left	1.44472999987	10336.0
n/a	n/a	h6	26.0	9.0	LH	62.0	62.0	56.0	60.0	X	left	2.30511999992	10398.0
n/a	n/a	h1	27.0	0.0	HL	57.0	35.0	60.0	40.0	L	left	0.900260000024	10455.0
n/a	n/a	h1	27.0	1.0	HL	63.0	50.0	60.0	40.0	R	right	0.311854999978	10505.0
n/a	n/a	h1	27.0	2.0	HL	57.0	53.0	60.0	40.0	L	left	1.50591999991	10562.0
n/a	n/a	h1	27.0	3.0	HL	54.0	48.0	60.0	40.0	R	right	0.851495000068	10610.0
n/a	n/a	h1	27.0	4.0	HL	62.0	36.0	60.0	40.0	X	left	3.35258499999	10672.0
n/a	n/a	h6	28.0	0.0	HL	43.0	35.0	40.0	28.0	R	right	0.42378000007	10707.0
n/a	n/a	h6	28.0	1.0	HL	31.0	21.0	40.0	28.0	R	right	0.689040000085	10728.0
n/a	n/a	h6	28.0	2.0	HL	40.0	28.0	40.0	28.0	R	right	1.60349499993	10756.0
n/a	n/a	h6	28.0	3.0	HL	36.0	23.0	40.0	28.0	L	left	1.20464000013	10792.0
n/a	n/a	h6	28.0	4.0	HL	40.0	18.0	40.0	28.0	X	right	1.06973999995	10810.0
n/a	n/a	h6	28.0	5.0	HL	42.0	29.0	40.0	28.0	X	left	0.810055000009	10852.0
n/a	n/a	h6	28.0	6.0	HL	38.0	28.0	40.0	28.0	X	left	1.38712999993	10890.0
n/a	n/a	h6	28.0	7.0	HL	43.0	25.0	40.0	28.0	X	right	0.788275000174	10915.0
n/a	n/a	h6	28.0	8.0	HL	43.0	29.0	40.0	28.0	X	left	1.07077499991	10958.0
n/a	n/a	h6	28.0	9.0	HL	45.0	26.0	40.0	28.0	X	left	0.41403500014	11003.0
n/a	n/a	h6	29.0	0.0	LH	55.0	58.0	40.0	52.0	L	left	0.808090000181	11058.0
n/a	n/a	h6	29.0	1.0	LH	32.0	39.0	40.0	52.0	R	right	2.09947000002	11097.0
n/a	n/a	h6	29.0	2.0	LH	52.0	53.0	40.0	52.0	L	left	0.601835000096	11149.0
n/a	n/a	h6	29.0	3.0	LH	62.0	54.0	40.0	52.0	R	right	0.723195000086	11203.0
n/a	n/a	h6	29.0	4.0	LH	37.0	56.0	40.0	52.0	X	left	1.50197999994	11240.0
n/a	n/a	h6	29.0	5.0	LH	45.0	43.0	40.0	52.0	X	right	0.732910000021	11283.0
n/a	n/a	h6	29.0	6.0	LH	22.0	51.0	40.0	52.0	X	right	0.564499999862	11334.0
n/a	n/a	h6	29.0	7.0	LH	45.0	42.0	40.0	52.0	X	right	0.634029999841	11376.0
n/a	n/a	h6	29.0	8.0	LH	49.0	51.0	40.0	52.0	X	left	1.39994499995	11425.0
n/a	n/a	h6	29.0	9.0	LH	34.0	68.0	40.0	52.0	X	right	0.649534999859	11493.0
n/a	n/a	h1	30.0	0.0	LH	43.0	75.0	40.0	70.0	R	right	0.442844999954	11568.0
n/a	n/a	h1	30.0	1.0	LH	30.0	80.0	40.0	70.0	R	right	0.432924999855	11648.0
n/a	n/a	h1	30.0	2.0	LH	40.0	70.0	40.0	70.0	R	right	0.874210000038	11718.0
n/a	n/a	h1	30.0	3.0	LH	22.0	65.0	40.0	70.0	L	left	1.42484500003	11740.0
n/a	n/a	h1	30.0	4.0	LH	40.0	78.0	40.0	70.0	X	right	1.2368650001	11818.0
n/a	n/a	h1	31.0	0.0	HL	60.0	66.0	68.0	60.0	R	right	0.503675000044	11884.0
n/a	n/a	h1	31.0	1.0	HL	76.0	54.0	68.0	60.0	L	left	0.386565000052	11960.0
n/a	n/a	h1	31.0	2.0	HL	62.0	51.0	68.0	60.0	L	left	0.536895000143	12022.0
n/a	n/a	h1	31.0	3.0	HL	57.0	44.0	68.0	60.0	R	right	0.539470000193	12066.0
n/a	n/a	h1	31.0	4.0	HL	64.0	60.0	68.0	60.0	X	left	4.42855499987	12130.0
n/a	n/a	h1	32.0	0.0	HL	30.0	11.0	40.0	10.0	R	right	0.344795000041	12141.0
n/a	n/a	h1	32.0	1.0	HL	39.0	7.0	40.0	10.0	L	left	0.21053000004	12180.0
n/a	n/a	h1	32.0	2.0	HL	45.0	1.0	40.0	10.0	R	right	0.184804999968	12181.0
n/a	n/a	h1	32.0	3.0	HL	34.0	9.0	40.0	10.0	L	left	0.518294999842	12215.0
n/a	n/a	h1	32.0	4.0	HL	46.0	17.0	40.0	10.0	X	left	1.40312999999	12261.0
n/a	n/a	h6	33.0	0.0	HL	49.0	36.0	60.0	40.0	L	left	0.456495000049	12310.0
n/a	n/a	h6	33.0	1.0	HL	68.0	43.0	60.0	40.0	R	right	0.576170000015	12353.0
n/a	n/a	h6	33.0	2.0	HL	55.0	40.0	60.0	40.0	L	left	0.602500000037	12408.0
n/a	n/a	h6	33.0	3.0	HL	67.0	41.0	60.0	40.0	R	right	1.26873999997	12449.0
n/a	n/a	h6	33.0	4.0	HL	59.0	49.0	60.0	40.0	X	left	1.62501500011	12508.0
n/a	n/a	h6	33.0	5.0	HL	60.0	28.0	60.0	40.0	X	right	0.801544999937	12536.0
n/a	n/a	h6	33.0	6.0	HL	50.0	48.0	60.0	40.0	X	left	0.439329999965	12586.0
n/a	n/a	h6	33.0	7.0	HL	64.0	50.0	60.0	40.0	X	left	0.560129999882	12650.0
n/a	n/a	h6	33.0	8.0	HL	57.0	31.0	60.0	40.0	X	left	0.884059999837	12707.0
n/a	n/a	h6	33.0	9.0	HL	54.0	45.0	60.0	40.0	X	left	0.774190000026	12761.0
n/a	n/a	h6	34.0	0.0	LH	53.0	77.0	60.0	80.0	L	left	0.322864999995	12814.0
n/a	n/a	h6	34.0	1.0	LH	60.0	78.0	60.0	80.0	L	left	0.384559999919	12874.0
n/a	n/a	h6	34.0	2.0	LH	58.0	68.0	60.0	80.0	L	left	0.441119999858	12932.0
n/a	n/a	h6	34.0	3.0	LH	57.0	67.0	60.0	80.0	R	right	0.609750000061	12999.0
n/a	n/a	h6	34.0	4.0	LH	66.0	90.0	60.0	80.0	X	left	0.900955000194	13065.0
n/a	n/a	h6	34.0	5.0	LH	81.0	75.0	60.0	80.0	X	right	0.388619999867	13140.0
n/a	n/a	h6	34.0	6.0	LH	67.0	84.0	60.0	80.0	X	left	2.54452500003	13207.0
n/a	n/a	h6	34.0	7.0	LH	62.0	68.0	60.0	80.0	X	right	1.33369999984	13275.0
n/a	n/a	h6	34.0	8.0	LH	72.0	88.0	60.0	80.0	X	left	0.754489999963	13347.0
n/a	n/a	h6	34.0	9.0	LH	58.0	63.0	60.0	80.0	X	right	1.06889	13410.0
n/a	n/a	h6	35.0	0.0	LH	27.0	80.0	30.0	60.0	R	right	2.50847500004	13490.0
n/a	n/a	h6	35.0	1.0	LH	40.0	61.0	30.0	60.0	R	right	0.576765000122	13551.0
n/a	n/a	h6	35.0	2.0	LH	20.0	58.0	30.0	60.0	L	left	0.534504999872	13571.0
n/a	n/a	h6	35.0	3.0	LH	25.0	65.0	30.0	60.0	L	left	0.500340000028	13596.0
n/a	n/a	h6	35.0	4.0	LH	30.0	62.0	30.0	60.0	X	right	1.15266499994	13658.0
n/a	n/a	h6	35.0	5.0	LH	38.0	58.0	30.0	60.0	X	right	1.31667500013	13716.0
n/a	n/a	h6	35.0	6.0	LH	32.0	69.0	30.0	60.0	X	right	0.651490000077	13785.0
n/a	n/a	h6	35.0	7.0	LH	38.0	65.0	30.0	60.0	X	right	0.384659999982	13850.0
n/a	n/a	h6	35.0	8.0	LH	40.0	48.0	30.0	60.0	X	right	0.335205000127	13898.0
n/a	n/a	h6	35.0	9.0	LH	18.0	68.0	30.0	60.0	X	left	0.968515000073	13916.0
n/a	n/a	h1	36.0	0.0	HL	70.0	46.0	60.0	40.0	R	right	0.316885000095	13962.0
n/a	n/a	h1	36.0	1.0	HL	54.0	36.0	60.0	40.0	R	right	0.368205000181	13998.0
n/a	n/a	h1	36.0	2.0	HL	46.0	26.0	60.0	40.0	R	right	0.565339999972	14024.0
n/a	n/a	h1	36.0	3.0	HL	68.0	32.0	60.0	40.0	L	left	0.19938500016	14092.0
n/a	n/a	h1	36.0	4.0	HL	54.0	37.0	60.0	40.0	X	right	0.21706000017	14129.0
n/a	n/a	h1	37.0	0.0	LH	51.0	75.0	48.0	60.0	R	right	0.649070000043	14204.0
n/a	n/a	h1	37.0	1.0	LH	58.0	57.0	48.0	60.0	R	right	0.334645000054	14261.0
n/a	n/a	h1	37.0	2.0	LH	46.0	58.0	48.0	60.0	L	left	0.359320000047	14307.0
n/a	n/a	h1	37.0	3.0	LH	40.0	48.0	48.0	60.0	R	right	0.583984999917	14355.0
n/a	n/a	h1	37.0	4.0	LH	42.0	54.0	48.0	60.0	X	right	0.804770000046	14409.0
n/a	n/a	h6	38.0	0.0	HL	77.0	45.0	70.0	40.0	L	left	0.547419999959	14486.0
n/a	n/a	h6	38.0	1.0	HL	68.0	29.0	70.0	40.0	L	left	0.322069999995	14554.0
n/a	n/a	h6	38.0	2.0	HL	71.0	27.0	70.0	40.0	L	left	0.303029999835	14625.0
n/a	n/a	h6	38.0	3.0	HL	82.0	35.0	70.0	40.0	R	right	0.418659999967	14660.0
n/a	n/a	h6	38.0	4.0	HL	64.0	43.0	70.0	40.0	X	left	1.68680500006	14724.0
n/a	n/a	h6	38.0	5.0	HL	56.0	43.0	70.0	40.0	X	left	1.50113500003	14780.0
n/a	n/a	h6	38.0	6.0	HL	73.0	47.0	70.0	40.0	X	right	0.900119999889	14827.0
n/a	n/a	h6	38.0	7.0	HL	80.0	40.0	70.0	40.0	X	left	0.651340000099	14907.0
n/a	n/a	h6	38.0	8.0	HL	71.0	44.0	70.0	40.0	X	left	0.584215000039	14978.0
n/a	n/a	h6	38.0	9.0	HL	83.0	48.0	70.0	40.0	X	left	0.265979999909	15061.0
n/a	n/a	h1	39.0	0.0	HL	39.0	32.0	44.0	40.0	L	left	0.504050000105	15100.0
n/a	n/a	h1	39.0	1.0	HL	49.0	52.0	44.0	40.0	L	left	0.270585000049	15149.0
n/a	n/a	h1	39.0	2.0	HL	39.0	32.0	44.0	40.0	L	left	0.442134999903	15188.0
n/a	n/a	h1	39.0	3.0	HL	36.0	47.0	44.0	40.0	R	right	0.385724999942	15235.0
n/a	n/a	h1	39.0	4.0	HL	55.0	46.0	44.0	40.0	X	left	1.05180000002	15290.0
n/a	n/a	h6	40.0	0.0	HL	36.0	38.0	40.0	28.0	L	left	0.434729999863	15326.0
n/a	n/a	h6	40.0	1.0	HL	37.0	27.0	40.0	28.0	L	left	0.435859999852	15363.0
n/a	n/a	h6	40.0	2.0	HL	33.0	23.0	40.0	28.0	R	right	0.352209999925	15386.0
n/a	n/a	h6	40.0	3.0	HL	44.0	40.0	40.0	28.0	R	right	0.535864999983	15426.0
n/a	n/a	h6	40.0	4.0	HL	22.0	36.0	40.0	28.0	X	left	4.15619999985	15448.0
n/a	n/a	h6	40.0	5.0	HL	47.0	30.0	40.0	28.0	X	right	1.30348500004	15478.0
n/a	n/a	h6	40.0	6.0	HL	31.0	16.0	40.0	28.0	X	right	0.918690000195	15494.0
n/a	n/a	h6	40.0	7.0	HL	47.0	34.0	40.0	28.0	X	right	1.62320999987	15528.0
n/a	n/a	h6	40.0	8.0	HL	39.0	20.0	40.0	28.0	X	right	0.405705000041	15548.0
n/a	n/a	h6	40.0	9.0	HL	37.0	36.0	40.0	28.0	X	right	0.769190000137	15584.0
n/a	n/a	h1	41.0	0.0	LH	65.0	58.0	52.0	60.0	L	left	0.458259999985	15649.0
n/a	n/a	h1	41.0	1.0	LH	49.0	64.0	52.0	60.0	L	left	0.451104999986	15698.0
n/a	n/a	h1	41.0	2.0	LH	52.0	73.0	52.0	60.0	R	right	0.985120000085	15771.0
n/a	n/a	h1	41.0	3.0	LH	52.0	64.0	52.0	60.0	R	right	0.618390000192	15835.0
n/a	n/a	h1	41.0	4.0	LH	52.0	62.0	52.0	60.0	X	right	1.25687499996	15897.0
n/a	n/a	h1	42.0	0.0	LH	43.0	75.0	40.0	70.0	R	right	0.256685000146	15972.0
n/a	n/a	h1	42.0	1.0	LH	30.0	80.0	40.0	70.0	R	right	0.59030000004	16052.0
n/a	n/a	h1	42.0	2.0	LH	40.0	70.0	40.0	70.0	R	right	0.639900000067	16122.0
n/a	n/a	h1	42.0	3.0	LH	22.0	65.0	40.0	70.0	L	left	0.768684999784	16144.0
n/a	n/a	h1	42.0	4.0	LH	44.0	86.0	40.0	70.0	X	right	0.922384999925	16230.0
n/a	n/a	h1	43.0	0.0	LH	32.0	50.0	36.0	40.0	L	left	0.421444999985	16262.0
n/a	n/a	h1	43.0	1.0	LH	39.0	44.0	36.0	40.0	R	right	0.470059999963	16306.0
n/a	n/a	h1	43.0	2.0	LH	27.0	48.0	36.0	40.0	L	left	0.284975000191	16333.0
n/a	n/a	h1	43.0	3.0	LH	44.0	31.0	36.0	40.0	L	left	0.70143500017	16377.0
n/a	n/a	h1	43.0	4.0	LH	42.0	45.0	36.0	40.0	X	left	1.46802000003	16419.0
n/a	n/a	h1	44.0	0.0	HL	58.0	57.0	64.0	60.0	L	left	0.357205000008	16477.0
n/a	n/a	h1	44.0	1.0	HL	68.0	62.0	64.0	60.0	R	right	0.191550000105	16539.0
n/a	n/a	h1	44.0	2.0	HL	61.0	75.0	64.0	60.0	L	left	0.288369999966	16600.0
n/a	n/a	h1	44.0	3.0	HL	44.0	57.0	64.0	60.0	R	right	1.04029000015	16657.0
n/a	n/a	h1	44.0	4.0	HL	65.0	64.0	64.0	60.0	X	left	5.74055500003	16722.0
n/a	n/a	h1	45.0	0.0	HL	75.0	55.0	72.0	60.0	L	left	0.301595000084	16797.0
n/a	n/a	h1	45.0	1.0	HL	69.0	58.0	72.0	60.0	R	right	0.285109999822	16855.0
n/a	n/a	h1	45.0	2.0	HL	62.0	75.0	72.0	60.0	L	left	0.203415000113	16917.0
n/a	n/a	h1	45.0	3.0	HL	69.0	50.0	72.0	60.0	R	right	0.570229999954	16967.0
n/a	n/a	h1	45.0	4.0	HL	60.0	48.0	72.0	60.0	X	left	2.45683499984	17027.0
n/a	n/a	h6	46.0	0.0	LH	72.0	71.0	60.0	64.0	L	left	0.416955000022	17099.0
n/a	n/a	h6	46.0	1.0	LH	49.0	87.0	60.0	64.0	L	left	0.471815000055	17148.0
n/a	n/a	h6	46.0	2.0	LH	61.0	70.0	60.0	64.0	R	right	0.784130000044	17218.0
n/a	n/a	h6	46.0	3.0	LH	61.0	76.0	60.0	64.0	R	right	0.319739999948	17294.0
n/a	n/a	h6	46.0	4.0	LH	70.0	72.0	60.0	64.0	X	right	2.0692749999	17366.0
n/a	n/a	h6	46.0	5.0	LH	69.0	65.0	60.0	64.0	X	right	0.807719999924	17431.0
n/a	n/a	h6	46.0	6.0	LH	60.0	52.0	60.0	64.0	X	right	0.258864999982	17483.0
n/a	n/a	h6	46.0	7.0	LH	63.0	61.0	60.0	64.0	X	right	0.21857999987	17544.0
n/a	n/a	h6	46.0	8.0	LH	58.0	65.0	60.0	64.0	X	right	0.176354999887	17609.0
n/a	n/a	h6	46.0	9.0	LH	54.0	59.0	60.0	64.0	X	right	0.339454999892	17668.0
n/a	n/a	h1	47.0	0.0	HL	65.0	59.0	68.0	60.0	L	left	0.57636499987	17733.0
n/a	n/a	h1	47.0	1.0	HL	57.0	58.0	68.0	60.0	R	right	0.323099999921	17791.0
n/a	n/a	h1	47.0	2.0	HL	54.0	48.0	68.0	60.0	L	left	0.501094999956	17845.0
n/a	n/a	h1	47.0	3.0	HL	70.0	61.0	68.0	60.0	L	left	1.03439000016	17915.0
n/a	n/a	h1	47.0	4.0	HL	67.0	45.0	68.0	60.0	X	left	1.20478499983	17982.0
n/a	n/a	h1	48.0	0.0	HL	67.0	22.0	60.0	30.0	R	right	1.08592500002	18004.0
n/a	n/a	h1	48.0	1.0	HL	55.0	38.0	60.0	30.0	R	right	0.434899999993	18042.0
n/a	n/a	h1	48.0	2.0	HL	83.0	34.0	60.0	30.0	R	right	0.448524999898	18076.0
n/a	n/a	h1	48.0	3.0	HL	67.0	27.0	60.0	30.0	L	left	0.393145000096	18143.0
n/a	n/a	h1	48.0	4.0	HL	70.0	16.0	60.0	30.0	X	right	1.38560499996	18159.0
n/a	n/a	h6	49.0	0.0	HL	77.0	45.0	70.0	40.0	L	left	0.483955000062	18236.0
n/a	n/a	h6	49.0	1.0	HL	68.0	29.0	70.0	40.0	L	left	0.318319999846	18304.0
n/a	n/a	h6	49.0	2.0	HL	71.0	27.0	70.0	40.0	L	left	0.532159999944	18375.0
n/a	n/a	h6	49.0	3.0	HL	82.0	35.0	70.0	40.0	R	right	0.456299999962	18410.0
n/a	n/a	h6	49.0	4.0	HL	72.0	23.0	70.0	40.0	X	left	1.60250000004	18482.0
n/a	n/a	h6	49.0	5.0	HL	74.0	31.0	70.0	40.0	X	left	0.619595000055	18556.0
n/a	n/a	h6	49.0	6.0	HL	86.0	53.0	70.0	40.0	X	left	0.34042500006	18642.0
n/a	n/a	h6	49.0	7.0	HL	68.0	32.0	70.0	40.0	X	left	0.176900000079	18710.0
n/a	n/a	h6	49.0	8.0	HL	64.0	27.0	70.0	40.0	X	left	0.501479999861	18774.0
n/a	n/a	h6	49.0	9.0	HL	67.0	43.0	70.0	40.0	X	left	0.726625000127	18841.0
n/a	n/a	h6	50.0	0.0	HL	96.0	65.0	90.0	60.0	L	left	0.585335000185	18937.0
n/a	n/a	h6	50.0	1.0	HL	88.0	57.0	90.0	60.0	L	left	0.603015000001	19025.0
n/a	n/a	h6	50.0	2.0	HL	84.0	59.0	90.0	60.0	R	right	0.341950000031	19084.0
n/a	n/a	h6	50.0	3.0	HL	76.0	67.0	90.0	60.0	R	right	0.483144999947	19151.0
n/a	n/a	h6	50.0	4.0	HL	89.0	66.0	90.0	60.0	X	left	1.88598499983	19240.0
n/a	n/a	h6	50.0	5.0	HL	99.0	61.0	90.0	60.0	X	left	0.502735000104	19339.0
n/a	n/a	h6	50.0	6.0	HL	84.0	67.0	90.0	60.0	X	left	0.936695000157	19423.0
n/a	n/a	h6	50.0	7.0	HL	91.0	70.0	90.0	60.0	X	left	0.170004999964	19514.0
n/a	n/a	h6	50.0	8.0	HL	85.0	51.0	90.0	60.0	X	left	1.50294500007	19599.0
n/a	n/a	h6	50.0	9.0	HL	83.0	72.0	90.0	60.0	X	left	0.410315000219	19682.0
n/a	n/a	h6	51.0	0.0	HL	55.0	61.0	60.0	52.0	R	right	0.471184999915	19743.0
n/a	n/a	h6	51.0	1.0	HL	60.0	43.0	60.0	52.0	L	left	0.285185000161	19803.0
n/a	n/a	h6	51.0	2.0	HL	65.0	62.0	60.0	52.0	L	left	0.351564999903	19868.0
n/a	n/a	h6	51.0	3.0	HL	53.0	67.0	60.0	52.0	R	right	0.468269999838	19935.0
n/a	n/a	h6	51.0	4.0	HL	52.0	57.0	60.0	52.0	X	right	2.02369499998	19992.0
n/a	n/a	h6	51.0	5.0	HL	78.0	49.0	60.0	52.0	X	right	0.618005000055	20041.0
n/a	n/a	h6	51.0	6.0	HL	44.0	51.0	60.0	52.0	X	right	0.934275000123	20092.0
n/a	n/a	h6	51.0	7.0	HL	59.0	44.0	60.0	52.0	X	right	0.659669999965	20136.0
n/a	n/a	h6	51.0	8.0	HL	60.0	42.0	60.0	52.0	X	right	1.15361000015	20178.0
n/a	n/a	h6	51.0	9.0	HL	59.0	52.0	60.0	52.0	X	right	0.517950000009	20230.0
n/a	n/a	h6	52.0	0.0	LH	40.0	38.0	40.0	48.0	L	left	0.568275000202	20270.0
n/a	n/a	h6	52.0	1.0	LH	37.0	44.0	40.0	48.0	L	left	0.35549999983	20307.0
n/a	n/a	h6	52.0	2.0	LH	60.0	44.0	40.0	48.0	R	right	0.435025000013	20351.0
n/a	n/a	h6	52.0	3.0	LH	42.0	52.0	40.0	48.0	R	right	1.5265850001	20403.0
n/a	n/a	h6	52.0	4.0	LH	31.0	59.0	40.0	48.0	X	right	2.11948000011	20462.0
n/a	n/a	h6	52.0	5.0	LH	39.0	40.0	40.0	48.0	X	right	0.243490000023	20502.0
n/a	n/a	h6	52.0	6.0	LH	43.0	47.0	40.0	48.0	X	right	0.100864999928	20549.0
n/a	n/a	h6	52.0	7.0	LH	50.0	47.0	40.0	48.0	X	right	0.360379999969	20596.0
n/a	n/a	h6	52.0	8.0	LH	55.0	41.0	40.0	48.0	X	right	0.0345000000671	20637.0
n/a	n/a	h6	52.0	9.0	LH	34.0	45.0	40.0	48.0	X	right	0.170625000028	20682.0
n/a	n/a	h6	53.0	0.0	LH	19.0	45.0	30.0	60.0	R	right	0.534985000035	20727.0
n/a	n/a	h6	53.0	1.0	LH	39.0	62.0	30.0	60.0	L	left	1.01871500001	20766.0
n/a	n/a	h6	53.0	2.0	LH	24.0	65.0	30.0	60.0	L	left	1.55625999998	20790.0
n/a	n/a	h6	53.0	3.0	LH	42.0	55.0	30.0	60.0	L	left	0.418190000113	20832.0
n/a	n/a	h6	53.0	4.0	LH	37.0	72.0	30.0	60.0	X	left	1.04404999991	20869.0
n/a	n/a	h6	53.0	5.0	LH	31.0	61.0	30.0	60.0	X	left	0.593104999978	20900.0
n/a	n/a	h6	53.0	6.0	LH	33.0	50.0	30.0	60.0	X	left	0.354330000002	20933.0
n/a	n/a	h6	53.0	7.0	LH	29.0	88.0	30.0	60.0	X	left	0.334460000042	20962.0
n/a	n/a	h6	53.0	8.0	LH	11.0	62.0	30.0	60.0	X	left	3.42061000015	20973.0
n/a	n/a	h6	53.0	9.0	LH	44.0	70.0	30.0	60.0	X	left	1.31854000012	21017.0
n/a	n/a	h6	54.0	0.0	HL	36.0	38.0	40.0	28.0	L	left	1.23441000003	21053.0
n/a	n/a	h6	54.0	1.0	HL	37.0	27.0	40.0	28.0	L	left	0.451774999965	21090.0
n/a	n/a	h6	54.0	2.0	HL	33.0	23.0	40.0	28.0	R	right	0.50602500001	21113.0
n/a	n/a	h6	54.0	3.0	HL	44.0	40.0	40.0	28.0	R	right	0.588549999986	21153.0
n/a	n/a	h6	54.0	4.0	HL	27.0	30.0	40.0	28.0	X	left	1.66068500001	21180.0
n/a	n/a	h6	54.0	5.0	HL	41.0	28.0	40.0	28.0	X	left	0.852395000169	21221.0
n/a	n/a	h6	54.0	6.0	HL	45.0	35.0	40.0	28.0	X	left	0.425400000066	21266.0
n/a	n/a	h6	54.0	7.0	HL	44.0	28.0	40.0	28.0	X	left	0.050169999944	21310.0
n/a	n/a	h6	54.0	8.0	HL	42.0	30.0	40.0	28.0	X	left	0.317854999797	21352.0
n/a	n/a	h6	54.0	9.0	HL	45.0	31.0	40.0	28.0	X	left	0.184445000021	21397.0
n/a	n/a	h1	55.0	0.0	LH	40.0	64.0	40.0	52.0	L	left	0.489245000063	21437.0
n/a	n/a	h1	55.0	1.0	LH	44.0	52.0	40.0	52.0	L	left	0.639470000053	21481.0
n/a	n/a	h1	55.0	2.0	LH	40.0	48.0	40.0	52.0	R	right	0.30162500008	21529.0
n/a	n/a	h1	55.0	3.0	LH	58.0	62.0	40.0	52.0	L	left	0.418040000135	21587.0
n/a	n/a	h1	55.0	4.0	LH	34.0	58.0	40.0	52.0	X	left	0.83395999996	21621.0
n/a	n/a	h6	56.0	0.0	HL	60.0	56.0	60.0	52.0	R	right	0.442280000076	21677.0
n/a	n/a	h6	56.0	1.0	HL	67.0	49.0	60.0	52.0	L	left	0.242030000081	21744.0
n/a	n/a	h6	56.0	2.0	HL	67.0	51.0	60.0	52.0	R	right	0.2183699999	21795.0
n/a	n/a	h6	56.0	3.0	HL	69.0	45.0	60.0	52.0	R	right	0.401240000036	21840.0
n/a	n/a	h6	56.0	4.0	HL	70.0	78.0	60.0	52.0	X	right	1.37083999999	21918.0
n/a	n/a	h6	56.0	5.0	HL	55.0	45.0	60.0	52.0	X	right	0.651305000065	21963.0
n/a	n/a	h6	56.0	6.0	HL	75.0	51.0	60.0	52.0	X	left	0.63476499985	22038.0
n/a	n/a	h6	56.0	7.0	HL	66.0	67.0	60.0	52.0	X	left	0.955245000077	22104.0
n/a	n/a	h6	56.0	8.0	HL	61.0	59.0	60.0	52.0	X	left	0.467925000004	22165.0
n/a	n/a	h6	56.0	9.0	HL	60.0	63.0	60.0	52.0	X	left	0.655705000041	22225.0
n/a	n/a	h6	57.0	0.0	HL	39.0	36.0	40.0	36.0	R	right	0.50335000013	22261.0
n/a	n/a	h6	57.0	1.0	HL	31.0	21.0	40.0	36.0	R	right	0.601645000046	22282.0
n/a	n/a	h6	57.0	2.0	HL	46.0	27.0	40.0	36.0	L	left	0.407659999793	22328.0
n/a	n/a	h6	57.0	3.0	HL	26.0	50.0	40.0	36.0	L	left	0.48469000007	22354.0
n/a	n/a	h6	57.0	4.0	HL	46.0	20.0	40.0	36.0	X	right	2.08599500009	22374.0
n/a	n/a	h6	57.0	5.0	HL	45.0	22.0	40.0	36.0	X	left	0.685779999942	22419.0
n/a	n/a	h6	57.0	6.0	HL	31.0	42.0	40.0	36.0	X	left	0.534340000013	22450.0
n/a	n/a	h6	57.0	7.0	HL	40.0	31.0	40.0	36.0	X	right	0.751759999897	22481.0
n/a	n/a	h6	57.0	8.0	HL	49.0	43.0	40.0	36.0	X	left	0.451839999994	22530.0
n/a	n/a	h6	57.0	9.0	HL	35.0	38.0	40.0	36.0	X	left	0.538094999967	22565.0
n/a	n/a	h1	58.0	0.0	HL	58.0	57.0	64.0	60.0	L	left	0.485044999979	22623.0
n/a	n/a	h1	58.0	1.0	HL	68.0	62.0	64.0	60.0	R	right	0.549899999984	22685.0
n/a	n/a	h1	58.0	2.0	HL	61.0	75.0	64.0	60.0	L	left	0.91926500015	22746.0
n/a	n/a	h1	58.0	3.0	HL	44.0	57.0	64.0	60.0	R	right	2.22104500001	22803.0
n/a	n/a	h1	58.0	4.0	HL	75.0	52.0	64.0	60.0	X	right	3.54577500001	22855.0
n/a	n/a	h6	59.0	0.0	LH	19.0	45.0	30.0	60.0	R	right	0.384684999939	22900.0
n/a	n/a	h6	59.0	1.0	LH	39.0	62.0	30.0	60.0	L	left	0.442160000093	22939.0
n/a	n/a	h6	59.0	2.0	LH	24.0	65.0	30.0	60.0	L	left	0.41941000009	22963.0
n/a	n/a	h6	59.0	3.0	LH	42.0	55.0	30.0	60.0	L	left	0.985299999826	23005.0
n/a	n/a	h6	59.0	4.0	LH	40.0	55.0	30.0	60.0	X	left	1.53682999988	23045.0
n/a	n/a	h6	59.0	5.0	LH	23.0	71.0	30.0	60.0	X	left	1.61927499995	23068.0
n/a	n/a	h6	59.0	6.0	LH	25.0	65.0	30.0	60.0	X	left	0.636725000106	23093.0
n/a	n/a	h6	59.0	7.0	LH	28.0	55.0	30.0	60.0	X	right	0.334500000114	23148.0
n/a	n/a	h6	59.0	8.0	LH	17.0	65.0	30.0	60.0	X	right	0.518550000153	23213.0
n/a	n/a	h6	59.0	9.0	LH	30.0	64.0	30.0	60.0	X	right	0.342244999949	23277.0
n/a	n/a	h6	60.0	0.0	LH	69.0	46.0	56.0	60.0	R	right	1.35268000001	23323.0
n/a	n/a	h6	60.0	1.0	LH	65.0	53.0	56.0	60.0	L	left	0.201050000032	23388.0
n/a	n/a	h6	60.0	2.0	LH	57.0	59.0	56.0	60.0	L	left	0.390344999963	23445.0
n/a	n/a	h6	60.0	3.0	LH	62.0	60.0	56.0	60.0	L	left	0.434945000103	23507.0
n/a	n/a	h6	60.0	4.0	LH	57.0	51.0	56.0	60.0	X	left	1.49168500002	23564.0
n/a	n/a	h6	60.0	5.0	LH	58.0	50.0	56.0	60.0	X	right	0.354874999961	23614.0
n/a	n/a	h6	60.0	6.0	LH	54.0	48.0	56.0	60.0	X	left	0.748789999867	23668.0
n/a	n/a	h6	60.0	7.0	LH	64.0	68.0	56.0	60.0	X	right	0.601495000068	23736.0
n/a	n/a	h6	60.0	8.0	LH	55.0	54.0	56.0	60.0	X	right	0.759324999992	23790.0
n/a	n/a	h6	60.0	9.0	LH	44.0	62.0	56.0	60.0	X	left	0.305609999923	23834.0
n/a	n/a	h1	61.0	0.0	HL	57.0	35.0	60.0	40.0	L	left	0.420385000063	23891.0
n/a	n/a	h1	61.0	1.0	HL	63.0	50.0	60.0	40.0	R	right	0.634984999895	23941.0
n/a	n/a	h1	61.0	2.0	HL	57.0	53.0	60.0	40.0	L	left	0.252395000076	23998.0
n/a	n/a	h1	61.0	3.0	HL	54.0	48.0	60.0	40.0	R	right	1.17295500007	24046.0
n/a	n/a	h1	61.0	4.0	HL	58.0	42.0	60.0	40.0	X	left	1.56765999994	24104.0
n/a	n/a	h6	62.0	0.0	HL	60.0	56.0	60.0	52.0	R	right	0.401444999967	24160.0
n/a	n/a	h6	62.0	1.0	HL	67.0	49.0	60.0	52.0	L	left	0.274999999907	24227.0
n/a	n/a	h6	62.0	2.0	HL	67.0	51.0	60.0	52.0	R	right	0.221890000161	24278.0
n/a	n/a	h6	62.0	3.0	HL	69.0	45.0	60.0	52.0	R	right	0.516395000042	24323.0
n/a	n/a	h6	62.0	4.0	HL	57.0	49.0	60.0	52.0	X	right	1.18795499997	24372.0
n/a	n/a	h6	62.0	5.0	HL	62.0	39.0	60.0	52.0	X	left	1.18326999992	24434.0
n/a	n/a	h6	62.0	6.0	HL	42.0	47.0	60.0	52.0	X	left	0.739834999898	24476.0
n/a	n/a	h6	62.0	7.0	HL	69.0	36.0	60.0	52.0	X	right	0.501619999995	24512.0
n/a	n/a	h6	62.0	8.0	HL	62.0	53.0	60.0	52.0	X	left	0.468439999968	24574.0
n/a	n/a	h6	62.0	9.0	HL	58.0	56.0	60.0	52.0	X	left	0.57011500001	24632.0
n/a	n/a	h6	63.0	0.0	LH	53.0	77.0	60.0	80.0	L	left	0.351640000008	24685.0
n/a	n/a	h6	63.0	1.0	LH	60.0	78.0	60.0	80.0	L	left	0.265399999917	24745.0
n/a	n/a	h6	63.0	2.0	LH	58.0	68.0	60.0	80.0	L	left	0.234235000098	24803.0
n/a	n/a	h6	63.0	3.0	LH	57.0	67.0	60.0	80.0	R	right	0.521389999893	24870.0
n/a	n/a	h6	63.0	4.0	LH	64.0	82.0	60.0	80.0	X	right	1.03376999986	24952.0
n/a	n/a	h6	63.0	5.0	LH	65.0	89.0	60.0	80.0	X	right	0.457025000127	25041.0
n/a	n/a	h6	63.0	6.0	LH	58.0	72.0	60.0	80.0	X	right	0.385254999856	25113.0
n/a	n/a	h6	63.0	7.0	LH	56.0	73.0	60.0	80.0	X	left	0.835179999936	25169.0
n/a	n/a	h6	63.0	8.0	LH	59.0	91.0	60.0	80.0	X	right	0.350540000014	25260.0
n/a	n/a	h6	63.0	9.0	LH	48.0	81.0	60.0	80.0	X	right	0.367970000021	25341.0
n/a	n/a	h1	64.0	0.0	LH	25.0	38.0	32.0	40.0	L	left	0.484355000081	25366.0
n/a	n/a	h1	64.0	1.0	LH	29.0	57.0	32.0	40.0	L	left	1.03502999991	25395.0
n/a	n/a	h1	64.0	2.0	LH	44.0	23.0	32.0	40.0	R	right	0.251115000108	25418.0
n/a	n/a	h1	64.0	3.0	LH	36.0	31.0	32.0	40.0	L	left	0.317405000096	25454.0
n/a	n/a	h1	64.0	4.0	LH	14.0	47.0	32.0	40.0	X	left	2.28530999995	25468.0
n/a	n/a	h6	65.0	0.0	LH	44.0	39.0	40.0	48.0	R	right	0.468945000088	25507.0
n/a	n/a	h6	65.0	1.0	LH	50.0	55.0	40.0	48.0	R	right	0.438480000012	25562.0
n/a	n/a	h6	65.0	2.0	LH	53.0	56.0	40.0	48.0	L	left	0.54055499984	25615.0
n/a	n/a	h6	65.0	3.0	LH	49.0	58.0	40.0	48.0	R	right	0.585055000149	25673.0
n/a	n/a	h6	65.0	4.0	LH	37.0	38.0	40.0	48.0	X	right	1.30252000014	25711.0
n/a	n/a	h6	65.0	5.0	LH	46.0	28.0	40.0	48.0	X	left	0.435249999864	25757.0
n/a	n/a	h6	65.0	6.0	LH	44.0	50.0	40.0	48.0	X	right	0.521984999999	25807.0
n/a	n/a	h6	65.0	7.0	LH	51.0	64.0	40.0	48.0	X	right	0.450625000056	25871.0
n/a	n/a	h6	65.0	8.0	LH	36.0	56.0	40.0	48.0	X	left	0.535120000131	25907.0
n/a	n/a	h6	65.0	9.0	LH	47.0	42.0	40.0	48.0	X	right	0.758980000159	25949.0
n/a	n/a	h6	66.0	0.0	HL	28.0	15.0	40.0	20.0	L	left	0.451605000068	25977.0
n/a	n/a	h6	66.0	1.0	HL	53.0	16.0	40.0	20.0	L	left	0.476974999998	26030.0
n/a	n/a	h6	66.0	2.0	HL	55.0	28.0	40.0	20.0	L	left	2.0382699999	26085.0
n/a	n/a	h6	66.0	3.0	HL	53.0	28.0	40.0	20.0	R	right	0.904309999896	26113.0
n/a	n/a	h6	66.0	4.0	HL	40.0	24.0	40.0	20.0	X	left	0.968630000018	26153.0
n/a	n/a	h6	66.0	5.0	HL	52.0	24.0	40.0	20.0	X	right	0.887515000068	26177.0
n/a	n/a	h6	66.0	6.0	HL	34.0	16.0	40.0	20.0	X	left	0.366165000014	26211.0
n/a	n/a	h6	66.0	7.0	HL	24.0	24.0	40.0	20.0	X	right	0.635780000128	26235.0
n/a	n/a	h6	66.0	8.0	HL	40.0	23.0	40.0	20.0	X	left	0.50405499991	26275.0
n/a	n/a	h6	66.0	9.0	HL	45.0	21.0	40.0	20.0	X	left	0.602315000026	26320.0
n/a	n/a	h6	67.0	0.0	LH	60.0	79.0	60.0	72.0	R	right	1.27108999994	26399.0
n/a	n/a	h6	67.0	1.0	LH	57.0	66.0	60.0	72.0	R	right	0.291949999984	26465.0
n/a	n/a	h6	67.0	2.0	LH	64.0	65.0	60.0	72.0	L	left	0.384440000169	26529.0
n/a	n/a	h6	67.0	3.0	LH	63.0	69.0	60.0	72.0	R	right	0.235829999903	26598.0
n/a	n/a	h6	67.0	4.0	LH	65.0	75.0	60.0	72.0	X	right	1.43556499993	26673.0
n/a	n/a	h6	67.0	5.0	LH	52.0	77.0	60.0	72.0	X	right	1.57144000009	26750.0
n/a	n/a	h6	67.0	6.0	LH	73.0	86.0	60.0	72.0	X	right	1.68646	26836.0
n/a	n/a	h6	67.0	7.0	LH	66.0	80.0	60.0	72.0	X	right	0.935354999965	26916.0
n/a	n/a	h6	67.0	8.0	LH	57.0	73.0	60.0	72.0	X	right	1.55919499998	26989.0
n/a	n/a	h6	67.0	9.0	LH	60.0	75.0	60.0	72.0	X	right	0.467535000062	27064.0
n/a	n/a	h1	68.0	0.0	LH	45.0	56.0	40.0	60.0	R	right	0.424439999973	27120.0
n/a	n/a	h1	68.0	1.0	LH	29.0	52.0	40.0	60.0	R	right	0.870319999987	27172.0
n/a	n/a	h1	68.0	2.0	LH	47.0	60.0	40.0	60.0	R	right	0.534854999976	27232.0
n/a	n/a	h1	68.0	3.0	LH	36.0	57.0	40.0	60.0	L	left	0.374740000116	27268.0
n/a	n/a	h1	68.0	4.0	LH	41.0	51.0	40.0	60.0	X	right	0.919355000136	27319.0
n/a	n/a	h6	69.0	0.0	LH	25.0	48.0	20.0	40.0	L	left	0.502984999912	27344.0
n/a	n/a	h6	69.0	1.0	LH	20.0	48.0	20.0	40.0	R	right	0.507579999976	27392.0
n/a	n/a	h6	69.0	2.0	LH	8.0	28.0	20.0	40.0	R	right	0.40162499994	27420.0
n/a	n/a	h6	69.0	3.0	LH	22.0	33.0	20.0	40.0	L	left	0.334829999832	27442.0
n/a	n/a	h6	69.0	4.0	LH	22.0	50.0	20.0	40.0	X	right	0.226315000094	27492.0
n/a	n/a	h6	69.0	5.0	LH	24.0	35.0	20.0	40.0	X	right	1.07354000001	27527.0
n/a	n/a	h6	69.0	6.0	LH	14.0	40.0	20.0	40.0	X	left	1.17021500017	27541.0
n/a	n/a	h6	69.0	7.0	LH	27.0	49.0	20.0	40.0	X	right	0.334549999796	27590.0
n/a	n/a	h6	69.0	8.0	LH	31.0	37.0	20.0	40.0	X	right	0.242570000002	27627.0
n/a	n/a	h6	69.0	9.0	LH	26.0	57.0	20.0	40.0	X	right	0.417739999946	27684.0
n/a	n/a	h1	70.0	0.0	LH	32.0	76.0	40.0	60.0	L	left	1.13477499993	27716.0
n/a	n/a	h1	70.0	1.0	LH	37.0	65.0	40.0	60.0	R	right	0.484744999791	27781.0
n/a	n/a	h1	70.0	2.0	LH	46.0	68.0	40.0	60.0	L	left	0.125145000173	27827.0
n/a	n/a	h1	70.0	3.0	LH	37.0	69.0	40.0	60.0	R	right	0.40270999982	27896.0
n/a	n/a	h1	70.0	4.0	LH	31.0	55.0	40.0	60.0	X	right	1.26916999999	27951.0
n/a	n/a	h1	71.0	0.0	LH	48.0	67.0	40.0	70.0	R	right	0.575879999902	28018.0
n/a	n/a	h1	71.0	1.0	LH	47.0	62.0	40.0	70.0	L	left	0.370984999929	28065.0
n/a	n/a	h1	71.0	2.0	LH	39.0	62.0	40.0	70.0	R	right	0.21921000001	28127.0
n/a	n/a	h1	71.0	3.0	LH	50.0	65.0	40.0	70.0	L	left	1.3213849999	28177.0
n/a	n/a	h1	71.0	4.0	LH	31.0	64.0	40.0	70.0	X	right	0.124709999887	28241.0
n/a	n/a	h1	72.0	0.0	LH	32.0	50.0	36.0	40.0	L	left	0.291100000031	28273.0
n/a	n/a	h1	72.0	1.0	LH	39.0	44.0	36.0	40.0	R	right	0.117919999873	28317.0
n/a	n/a	h1	72.0	2.0	LH	27.0	48.0	36.0	40.0	L	left	0.267315000063	28344.0
n/a	n/a	h1	72.0	3.0	LH	44.0	31.0	36.0	40.0	L	left	0.584440000122	28388.0
n/a	n/a	h1	72.0	4.0	LH	32.0	33.0	36.0	40.0	X	left	3.46078999992	28420.0
n/a	n/a	h1	73.0	0.0	LH	31.0	44.0	28.0	40.0	R	right	0.338205000153	28464.0
n/a	n/a	h1	73.0	1.0	LH	27.0	39.0	28.0	40.0	L	left	0.352755000116	28491.0
n/a	n/a	h1	73.0	2.0	LH	25.0	54.0	28.0	40.0	R	right	0.567449999973	28545.0
n/a	n/a	h1	73.0	3.0	LH	29.0	30.0	28.0	40.0	L	left	0.984995000064	28574.0
n/a	n/a	h1	73.0	4.0	LH	26.0	45.0	28.0	40.0	X	right	0.505754999816	28619.0
n/a	n/a	h1	74.0	0.0	LH	51.0	75.0	48.0	60.0	R	right	0.624929999933	28694.0
n/a	n/a	h1	74.0	1.0	LH	58.0	57.0	48.0	60.0	R	right	0.721530000214	28751.0
n/a	n/a	h1	74.0	2.0	LH	46.0	58.0	48.0	60.0	L	left	0.522674999898	28797.0
n/a	n/a	h1	74.0	3.0	LH	40.0	48.0	48.0	60.0	R	right	0.899634999922	28845.0
n/a	n/a	h1	74.0	4.0	LH	29.0	51.0	48.0	60.0	X	right	0.755515000084	28896.0
n/a	n/a	h1	75.0	0.0	LH	66.0	43.0	56.0	60.0	L	left	0.45298000006	28962.0
n/a	n/a	h1	75.0	1.0	LH	33.0	67.0	56.0	60.0	R	right	0.283104999922	29029.0
n/a	n/a	h1	75.0	2.0	LH	42.0	59.0	56.0	60.0	L	left	0.568184999982	29071.0
n/a	n/a	h1	75.0	3.0	LH	55.0	64.0	56.0	60.0	R	right	3.78835499985	29135.0
n/a	n/a	h1	75.0	4.0	LH	58.0	59.0	56.0	60.0	X	right	1.21747500007	29194.0
n/a	n/a	h6	76.0	0.0	HL	55.0	61.0	60.0	52.0	R	right	0.316030000104	29255.0
n/a	n/a	h6	76.0	1.0	HL	60.0	43.0	60.0	52.0	L	left	0.151560000144	29315.0
n/a	n/a	h6	76.0	2.0	HL	65.0	62.0	60.0	52.0	L	left	0.301495000022	29380.0
n/a	n/a	h6	76.0	3.0	HL	53.0	67.0	60.0	52.0	R	right	0.223765000002	29447.0
n/a	n/a	h6	76.0	4.0	HL	61.0	57.0	60.0	52.0	X	left	1.56933499989	29508.0
n/a	n/a	h6	76.0	5.0	HL	59.0	41.0	60.0	52.0	X	right	1.00265499996	29549.0
n/a	n/a	h6	76.0	6.0	HL	42.0	45.0	60.0	52.0	X	left	0.377580000088	29591.0
n/a	n/a	h6	76.0	7.0	HL	60.0	45.0	60.0	52.0	X	right	0.338699999964	29636.0
n/a	n/a	h6	76.0	8.0	HL	64.0	53.0	60.0	52.0	X	right	0.819499999983	29689.0
n/a	n/a	h6	76.0	9.0	HL	56.0	38.0	60.0	52.0	X	right	0.307150000008	29727.0
n/a	n/a	h1	77.0	0.0	LH	65.0	58.0	52.0	60.0	L	left	0.354549999814	29792.0
n/a	n/a	h1	77.0	1.0	LH	49.0	64.0	52.0	60.0	L	left	0.622195000062	29841.0
n/a	n/a	h1	77.0	2.0	LH	52.0	73.0	52.0	60.0	R	right	1.53701000009	29914.0
n/a	n/a	h1	77.0	3.0	LH	52.0	64.0	52.0	60.0	R	right	0.282214999897	29978.0
n/a	n/a	h1	77.0	4.0	LH	57.0	61.0	52.0	60.0	X	right	1.55716999993	30039.0
n/a	n/a	h6	78.0	0.0	LH	60.0	79.0	60.0	72.0	R	right	0.367229999974	30118.0
n/a	n/a	h6	78.0	1.0	LH	57.0	66.0	60.0	72.0	R	right	0.808109999867	30184.0
n/a	n/a	h6	78.0	2.0	LH	64.0	65.0	60.0	72.0	L	left	0.150785000063	30248.0
n/a	n/a	h6	78.0	3.0	LH	63.0	69.0	60.0	72.0	R	right	0.151679999894	30317.0
n/a	n/a	h6	78.0	4.0	LH	67.0	90.0	60.0	72.0	X	left	0.200505000073	30384.0
n/a	n/a	h6	78.0	5.0	LH	56.0	63.0	60.0	72.0	X	right	1.49468999985	30447.0
n/a	n/a	h6	78.0	6.0	LH	53.0	64.0	60.0	72.0	X	right	0.321745000081	30511.0
n/a	n/a	h6	78.0	7.0	LH	65.0	72.0	60.0	72.0	X	left	0.100589999929	30576.0
n/a	n/a	h6	78.0	8.0	LH	54.0	66.0	60.0	72.0	X	left	0.322824999923	30630.0
n/a	n/a	h6	78.0	9.0	LH	63.0	62.0	60.0	72.0	X	right	0.434840000002	30692.0
n/a	n/a	h1	79.0	0.0	LH	45.0	56.0	40.0	60.0	R	right	0.251459999941	30748.0
n/a	n/a	h1	79.0	1.0	LH	29.0	52.0	40.0	60.0	R	right	0.533920000074	30800.0
n/a	n/a	h1	79.0	2.0	LH	47.0	60.0	40.0	60.0	R	right	0.185095000081	30860.0
n/a	n/a	h1	79.0	3.0	LH	36.0	57.0	40.0	60.0	L	left	0.369760000147	30896.0
n/a	n/a	h1	79.0	4.0	LH	31.0	50.0	40.0	60.0	X	right	0.691485000076	30946.0
