onset	duration	trial_type	trial_number	bandit_num	mean_type	left_reward	right_reward	left_mean	right_mean	force_pos	response	response_time	points
n/a	n/a	h1	0.0	0.0	LH	40.0	64.0	40.0	52.0	L	left	2.11929999995	40.0
n/a	n/a	h1	0.0	1.0	LH	44.0	48.0	40.0	52.0	L	left	0.817300000191	84.0
n/a	n/a	h1	0.0	2.0	LH	58.0	52.0	40.0	52.0	R	right	0.356800000191	136.0
n/a	n/a	h1	0.0	3.0	LH	40.0	62.0	40.0	52.0	L	left	0.284300000191	176.0
n/a	n/a	h1	0.0	4.0	LH	52.0	40.0	40.0	52.0	X	right	0.584100000143	216.0
n/a	n/a	h6	1.0	0.0	LH	58.0	58.0	60.0	64.0	R	right	0.701399999857	274.0
n/a	n/a	h6	1.0	1.0	LH	59.0	60.0	60.0	64.0	L	left	0.284799999952	333.0
n/a	n/a	h6	1.0	2.0	LH	61.0	64.0	60.0	64.0	R	right	0.367900000095	397.0
n/a	n/a	h6	1.0	3.0	LH	55.0	63.0	60.0	64.0	R	right	0.451099999905	460.0
n/a	n/a	h6	1.0	4.0	LH	69.0	69.0	60.0	64.0	X	left	0.651799999952	529.0
n/a	n/a	h6	1.0	5.0	LH	58.0	77.0	60.0	64.0	X	right	0.468100000143	606.0
n/a	n/a	h6	1.0	6.0	LH	51.0	47.0	60.0	64.0	X	left	0.584800000191	657.0
n/a	n/a	h6	1.0	7.0	LH	52.0	56.0	60.0	64.0	X	right	0.385599999905	713.0
n/a	n/a	h6	1.0	8.0	LH	62.0	56.0	60.0	64.0	X	left	0.467800000191	775.0
n/a	n/a	h6	1.0	9.0	LH	61.0	72.0	60.0	64.0	X	right	0.2675	847.0
n/a	n/a	h1	2.0	0.0	LH	48.0	67.0	40.0	70.0	R	right	0.5175	914.0
n/a	n/a	h1	2.0	1.0	LH	47.0	62.0	40.0	70.0	L	left	0.267599999905	961.0
n/a	n/a	h1	2.0	2.0	LH	39.0	62.0	40.0	70.0	R	right	0.2415	1023.0
n/a	n/a	h1	2.0	3.0	LH	35.0	65.0	40.0	70.0	L	left	0.299900000095	1058.0
n/a	n/a	h1	2.0	4.0	LH	50.0	67.0	40.0	70.0	X	right	0.552599999905	1125.0
n/a	n/a	h1	3.0	0.0	LH	31.0	44.0	28.0	40.0	R	right	0.438599999905	1169.0
n/a	n/a	h1	3.0	1.0	LH	27.0	54.0	28.0	40.0	L	left	0.283899999857	1196.0
n/a	n/a	h1	3.0	2.0	LH	25.0	39.0	28.0	40.0	R	right	0.318200000048	1235.0
n/a	n/a	h1	3.0	3.0	LH	29.0	30.0	28.0	40.0	L	left	0.267200000048	1264.0
n/a	n/a	h1	3.0	4.0	LH	29.0	47.0	28.0	40.0	X	right	0.273299999952	1311.0
n/a	n/a	h1	4.0	0.0	HL	67.0	22.0	60.0	30.0	R	right	0.401	1333.0
n/a	n/a	h1	4.0	1.0	HL	55.0	38.0	60.0	30.0	R	right	0.417399999857	1371.0
n/a	n/a	h1	4.0	2.0	HL	83.0	34.0	60.0	30.0	R	right	0.351200000048	1405.0
n/a	n/a	h1	4.0	3.0	HL	67.0	27.0	60.0	30.0	L	left	0.353600000143	1472.0
n/a	n/a	h1	4.0	4.0	HL	64.0	30.0	60.0	30.0	X	right	0.772100000143	1502.0
n/a	n/a	h1	5.0	0.0	HL	75.0	55.0	72.0	60.0	L	left	0.341100000143	1577.0
n/a	n/a	h1	5.0	1.0	HL	62.0	75.0	72.0	60.0	R	right	0.289900000095	1652.0
n/a	n/a	h1	5.0	2.0	HL	69.0	58.0	72.0	60.0	L	left	0.383900000095	1721.0
n/a	n/a	h1	5.0	3.0	HL	69.0	50.0	72.0	60.0	R	right	0.402	1771.0
n/a	n/a	h1	5.0	4.0	HL	81.0	50.0	72.0	60.0	X	left	0.567599999905	1852.0
n/a	n/a	h1	6.0	0.0	HL	62.0	66.0	68.0	60.0	R	right	0.349900000095	1918.0
n/a	n/a	h1	6.0	1.0	HL	76.0	44.0	68.0	60.0	L	left	0.334399999857	1994.0
n/a	n/a	h1	6.0	2.0	HL	60.0	51.0	68.0	60.0	L	left	0.370599999905	2054.0
n/a	n/a	h1	6.0	3.0	HL	57.0	54.0	68.0	60.0	R	right	0.285700000048	2108.0
n/a	n/a	h1	6.0	4.0	HL	63.0	47.0	68.0	60.0	X	left	0.534299999952	2171.0
n/a	n/a	h1	7.0	0.0	HL	39.0	32.0	44.0	40.0	L	left	0.317099999905	2210.0
n/a	n/a	h1	7.0	1.0	HL	49.0	52.0	44.0	40.0	L	left	0.467599999905	2259.0
n/a	n/a	h1	7.0	2.0	HL	39.0	32.0	44.0	40.0	L	left	0.336900000095	2298.0
n/a	n/a	h1	7.0	3.0	HL	36.0	47.0	44.0	40.0	R	right	0.493	2345.0
n/a	n/a	h1	7.0	4.0	HL	39.0	37.0	44.0	40.0	X	left	0.785399999857	2384.0
n/a	n/a	h6	8.0	0.0	HL	96.0	65.0	90.0	60.0	L	left	0.367600000143	2480.0
n/a	n/a	h6	8.0	1.0	HL	88.0	57.0	90.0	60.0	L	left	0.400900000095	2568.0
n/a	n/a	h6	8.0	2.0	HL	84.0	59.0	90.0	60.0	R	right	0.341099999905	2627.0
n/a	n/a	h6	8.0	3.0	HL	76.0	67.0	90.0	60.0	R	right	0.417199999809	2694.0
n/a	n/a	h6	8.0	4.0	HL	99.0	71.0	90.0	60.0	X	left	0.500699999809	2793.0
n/a	n/a	h6	8.0	5.0	HL	92.0	41.0	90.0	60.0	X	right	0.304	2834.0
n/a	n/a	h6	8.0	6.0	HL	81.0	65.0	90.0	60.0	X	right	0.483900000095	2899.0
n/a	n/a	h6	8.0	7.0	HL	95.0	52.0	90.0	60.0	X	left	0.373099999905	2994.0
n/a	n/a	h6	8.0	8.0	HL	90.0	70.0	90.0	60.0	X	right	0.320800000191	3064.0
n/a	n/a	h6	8.0	9.0	HL	99.0	56.0	90.0	60.0	X	left	0.2845	3163.0
n/a	n/a	h6	9.0	0.0	HL	39.0	36.0	40.0	36.0	R	right	0.400700000048	3199.0
n/a	n/a	h6	9.0	1.0	HL	31.0	21.0	40.0	36.0	R	right	0.392400000095	3220.0
n/a	n/a	h6	9.0	2.0	HL	46.0	27.0	40.0	36.0	L	left	0.2905	3266.0
n/a	n/a	h6	9.0	3.0	HL	26.0	50.0	40.0	36.0	L	left	0.419	3292.0
n/a	n/a	h6	9.0	4.0	HL	41.0	28.0	40.0	36.0	X	right	0.417700000048	3320.0
n/a	n/a	h6	9.0	5.0	HL	35.0	37.0	40.0	36.0	X	left	0.235799999952	3355.0
n/a	n/a	h6	9.0	6.0	HL	36.0	38.0	40.0	36.0	X	right	0.234799999952	3393.0
n/a	n/a	h6	9.0	7.0	HL	46.0	22.0	40.0	36.0	X	left	0.523599999905	3439.0
n/a	n/a	h6	9.0	8.0	HL	35.0	32.0	40.0	36.0	X	right	0.2505	3471.0
n/a	n/a	h6	9.0	9.0	HL	37.0	30.0	40.0	36.0	X	left	0.3055	3508.0
n/a	n/a	h1	10.0	0.0	HL	70.0	46.0	60.0	40.0	R	right	0.384100000143	3554.0
n/a	n/a	h1	10.0	1.0	HL	54.0	36.0	60.0	40.0	R	right	0.385	3590.0
n/a	n/a	h1	10.0	2.0	HL	46.0	26.0	60.0	40.0	R	right	0.351900000095	3616.0
n/a	n/a	h1	10.0	3.0	HL	68.0	32.0	60.0	40.0	L	left	0.350799999952	3684.0
n/a	n/a	h1	10.0	4.0	HL	61.0	46.0	60.0	40.0	X	right	0.267	3730.0
n/a	n/a	h1	11.0	0.0	HL	30.0	11.0	40.0	10.0	R	right	0.318600000143	3741.0
n/a	n/a	h1	11.0	1.0	HL	39.0	7.0	40.0	10.0	L	left	0.236200000048	3780.0
n/a	n/a	h1	11.0	2.0	HL	45.0	1.0	40.0	10.0	R	right	0.421099999905	3781.0
n/a	n/a	h1	11.0	3.0	HL	34.0	9.0	40.0	10.0	L	left	0.283600000143	3815.0
n/a	n/a	h1	11.0	4.0	HL	33.0	19.0	40.0	10.0	X	right	0.317599999905	3834.0
n/a	n/a	h6	12.0	0.0	LH	27.0	80.0	30.0	60.0	R	right	0.356100000143	3914.0
n/a	n/a	h6	12.0	1.0	LH	40.0	61.0	30.0	60.0	R	right	0.3845	3975.0
n/a	n/a	h6	12.0	2.0	LH	20.0	58.0	30.0	60.0	L	left	0.2345	3995.0
n/a	n/a	h6	12.0	3.0	LH	25.0	65.0	30.0	60.0	L	left	0.3235	4020.0
n/a	n/a	h6	12.0	4.0	LH	34.0	60.0	30.0	60.0	X	right	0.401	4080.0
n/a	n/a	h6	12.0	5.0	LH	33.0	53.0	30.0	60.0	X	left	0.550900000095	4113.0
n/a	n/a	h6	12.0	6.0	LH	33.0	73.0	30.0	60.0	X	right	0.358900000095	4186.0
n/a	n/a	h6	12.0	7.0	LH	18.0	45.0	30.0	60.0	X	left	0.289599999905	4204.0
n/a	n/a	h6	12.0	8.0	LH	37.0	68.0	30.0	60.0	X	right	0.241300000191	4272.0
n/a	n/a	h6	12.0	9.0	LH	33.0	60.0	30.0	60.0	X	left	0.234	4305.0
n/a	n/a	h6	13.0	0.0	LH	58.0	58.0	60.0	64.0	R	right	0.316600000143	4363.0
n/a	n/a	h6	13.0	1.0	LH	59.0	60.0	60.0	64.0	L	left	0.233799999952	4422.0
n/a	n/a	h6	13.0	2.0	LH	61.0	64.0	60.0	64.0	R	right	0.306599999905	4486.0
n/a	n/a	h6	13.0	3.0	LH	55.0	61.0	60.0	64.0	R	right	0.367799999952	4547.0
n/a	n/a	h6	13.0	4.0	LH	73.0	70.0	60.0	64.0	X	left	0.331700000048	4620.0
n/a	n/a	h6	13.0	5.0	LH	69.0	59.0	60.0	64.0	X	right	0.301299999952	4679.0
n/a	n/a	h6	13.0	6.0	LH	58.0	75.0	60.0	64.0	X	left	0.201099999905	4737.0
n/a	n/a	h6	13.0	7.0	LH	61.0	68.0	60.0	64.0	X	right	0.207600000143	4805.0
n/a	n/a	h6	13.0	8.0	LH	58.0	56.0	60.0	64.0	X	left	0.234699999809	4863.0
n/a	n/a	h6	13.0	9.0	LH	62.0	79.0	60.0	64.0	X	right	0.274799999952	4942.0
n/a	n/a	h6	14.0	0.0	LH	44.0	39.0	40.0	48.0	R	right	0.2845	4981.0
n/a	n/a	h6	14.0	1.0	LH	50.0	55.0	40.0	48.0	R	right	0.433400000095	5036.0
n/a	n/a	h6	14.0	2.0	LH	53.0	56.0	40.0	48.0	L	left	0.300699999809	5089.0
n/a	n/a	h6	14.0	3.0	LH	49.0	58.0	40.0	48.0	R	right	0.251200000048	5147.0
n/a	n/a	h6	14.0	4.0	LH	40.0	44.0	40.0	48.0	X	left	0.284299999952	5187.0
n/a	n/a	h6	14.0	5.0	LH	43.0	57.0	40.0	48.0	X	right	0.440799999952	5244.0
n/a	n/a	h6	14.0	6.0	LH	39.0	43.0	40.0	48.0	X	left	0.185299999952	5283.0
n/a	n/a	h6	14.0	7.0	LH	43.0	56.0	40.0	48.0	X	right	0.167799999952	5339.0
n/a	n/a	h6	14.0	8.0	LH	23.0	56.0	40.0	48.0	X	left	0.1835	5362.0
n/a	n/a	h6	14.0	9.0	LH	42.0	49.0	40.0	48.0	X	right	0.202100000143	5411.0
n/a	n/a	h1	15.0	0.0	HL	65.0	59.0	68.0	60.0	L	left	0.4175	5476.0
n/a	n/a	h1	15.0	1.0	HL	57.0	61.0	68.0	60.0	R	right	0.351200000048	5537.0
n/a	n/a	h1	15.0	2.0	HL	54.0	48.0	68.0	60.0	L	left	0.200100000143	5591.0
n/a	n/a	h1	15.0	3.0	HL	70.0	58.0	68.0	60.0	L	left	0.400899999857	5661.0
n/a	n/a	h1	15.0	4.0	HL	69.0	51.0	68.0	60.0	X	right	0.405599999905	5712.0
n/a	n/a	h6	16.0	0.0	LH	72.0	71.0	60.0	64.0	L	left	0.238200000048	5784.0
n/a	n/a	h6	16.0	1.0	LH	65.0	87.0	60.0	64.0	L	left	0.384	5849.0
n/a	n/a	h6	16.0	2.0	LH	61.0	70.0	60.0	64.0	R	right	0.251400000095	5919.0
n/a	n/a	h6	16.0	3.0	LH	61.0	76.0	60.0	64.0	R	right	0.758799999952	5995.0
n/a	n/a	h6	16.0	4.0	LH	71.0	66.0	60.0	64.0	X	left	0.434299999952	6066.0
n/a	n/a	h6	16.0	5.0	LH	49.0	59.0	60.0	64.0	X	right	0.370600000143	6125.0
n/a	n/a	h6	16.0	6.0	LH	65.0	50.0	60.0	64.0	X	left	0.2525	6190.0
n/a	n/a	h6	16.0	7.0	LH	56.0	76.0	60.0	64.0	X	right	0.158700000048	6266.0
n/a	n/a	h6	16.0	8.0	LH	58.0	59.0	60.0	64.0	X	left	0.154400000095	6324.0
n/a	n/a	h6	16.0	9.0	LH	71.0	64.0	60.0	64.0	X	right	0.1745	6388.0
n/a	n/a	h6	17.0	0.0	LH	43.0	58.0	40.0	52.0	L	left	0.268799999952	6431.0
n/a	n/a	h6	17.0	1.0	LH	32.0	39.0	40.0	52.0	R	right	0.267700000048	6470.0
n/a	n/a	h6	17.0	2.0	LH	45.0	53.0	40.0	52.0	L	left	0.2345	6515.0
n/a	n/a	h6	17.0	3.0	LH	62.0	60.0	40.0	52.0	R	right	0.305800000191	6575.0
n/a	n/a	h6	17.0	4.0	LH	32.0	54.0	40.0	52.0	X	left	0.217600000143	6607.0
n/a	n/a	h6	17.0	5.0	LH	52.0	51.0	40.0	52.0	X	right	0.4345	6658.0
n/a	n/a	h6	17.0	6.0	LH	46.0	54.0	40.0	52.0	X	left	0.170799999952	6704.0
n/a	n/a	h6	17.0	7.0	LH	55.0	58.0	40.0	52.0	X	right	0.151099999905	6762.0
n/a	n/a	h6	17.0	8.0	LH	47.0	61.0	40.0	52.0	X	left	0.139200000048	6809.0
n/a	n/a	h6	17.0	9.0	LH	48.0	45.0	40.0	52.0	X	right	0.184400000095	6854.0
n/a	n/a	h6	18.0	0.0	HL	28.0	15.0	40.0	20.0	L	left	0.368299999952	6882.0
n/a	n/a	h6	18.0	1.0	HL	53.0	16.0	40.0	20.0	L	left	0.400699999809	6935.0
n/a	n/a	h6	18.0	2.0	HL	55.0	28.0	40.0	20.0	L	left	0.317100000143	6990.0
n/a	n/a	h6	18.0	3.0	HL	53.0	20.0	40.0	20.0	R	right	0.421799999952	7010.0
n/a	n/a	h6	18.0	4.0	HL	53.0	3.0	40.0	20.0	X	left	0.470099999905	7063.0
n/a	n/a	h6	18.0	5.0	HL	40.0	15.0	40.0	20.0	X	left	0.589700000048	7103.0
n/a	n/a	h6	18.0	6.0	HL	45.0	4.0	40.0	20.0	X	left	0.268299999952	7148.0
n/a	n/a	h6	18.0	7.0	HL	41.0	28.0	40.0	20.0	X	left	0.351599999905	7189.0
n/a	n/a	h6	18.0	8.0	HL	43.0	25.0	40.0	20.0	X	left	0.338899999857	7232.0
n/a	n/a	h6	18.0	9.0	HL	47.0	26.0	40.0	20.0	X	left	0.303600000143	7279.0
n/a	n/a	h1	19.0	0.0	LH	66.0	43.0	56.0	60.0	L	left	0.367600000143	7345.0
n/a	n/a	h1	19.0	1.0	LH	33.0	67.0	56.0	60.0	R	right	0.284100000143	7412.0
n/a	n/a	h1	19.0	2.0	LH	42.0	59.0	56.0	60.0	L	left	0.218899999857	7454.0
n/a	n/a	h1	19.0	3.0	LH	55.0	64.0	56.0	60.0	R	right	0.236400000095	7518.0
n/a	n/a	h1	19.0	4.0	LH	47.0	58.0	56.0	60.0	X	right	0.54	7576.0
n/a	n/a	h1	20.0	0.0	LH	25.0	23.0	32.0	40.0	L	left	0.465799999952	7601.0
n/a	n/a	h1	20.0	1.0	LH	29.0	57.0	32.0	40.0	L	left	0.701200000048	7630.0
n/a	n/a	h1	20.0	2.0	LH	44.0	38.0	32.0	40.0	R	right	0.272799999952	7668.0
n/a	n/a	h1	20.0	3.0	LH	36.0	31.0	32.0	40.0	L	left	0.336	7704.0
n/a	n/a	h1	20.0	4.0	LH	39.0	48.0	32.0	40.0	X	right	0.167300000191	7752.0
n/a	n/a	h6	21.0	0.0	HL	43.0	35.0	40.0	28.0	R	right	0.417400000095	7787.0
n/a	n/a	h6	21.0	1.0	HL	31.0	21.0	40.0	28.0	R	right	0.4175	7808.0
n/a	n/a	h6	21.0	2.0	HL	40.0	28.0	40.0	28.0	R	right	0.284200000048	7836.0
n/a	n/a	h6	21.0	3.0	HL	36.0	23.0	40.0	28.0	L	left	0.303799999952	7872.0
n/a	n/a	h6	21.0	4.0	HL	40.0	27.0	40.0	28.0	X	right	0.388900000095	7899.0
n/a	n/a	h6	21.0	5.0	HL	46.0	20.0	40.0	28.0	X	right	0.638599999905	7919.0
n/a	n/a	h6	21.0	6.0	HL	50.0	21.0	40.0	28.0	X	left	0.334900000095	7969.0
n/a	n/a	h6	21.0	7.0	HL	41.0	37.0	40.0	28.0	X	right	0.234699999809	8006.0
n/a	n/a	h6	21.0	8.0	HL	44.0	19.0	40.0	28.0	X	left	0.217399999857	8050.0
n/a	n/a	h6	21.0	9.0	HL	37.0	25.0	40.0	28.0	X	right	0.200900000095	8075.0
n/a	n/a	h1	22.0	0.0	LH	32.0	76.0	40.0	60.0	L	left	0.356399999857	8107.0
n/a	n/a	h1	22.0	1.0	LH	37.0	65.0	40.0	60.0	R	right	0.256100000143	8172.0
n/a	n/a	h1	22.0	2.0	LH	46.0	68.0	40.0	60.0	L	left	0.167799999952	8218.0
n/a	n/a	h1	22.0	3.0	LH	37.0	69.0	40.0	60.0	R	right	0.169900000095	8287.0
n/a	n/a	h1	22.0	4.0	LH	40.0	53.0	40.0	60.0	X	left	0.6515	8327.0
n/a	n/a	h6	23.0	0.0	HL	49.0	36.0	60.0	40.0	L	left	0.302799999952	8376.0
n/a	n/a	h6	23.0	1.0	HL	68.0	43.0	60.0	40.0	R	right	0.317399999857	8419.0
n/a	n/a	h6	23.0	2.0	HL	55.0	40.0	60.0	40.0	L	left	0.289200000048	8474.0
n/a	n/a	h6	23.0	3.0	HL	67.0	41.0	60.0	40.0	R	right	0.257299999952	8515.0
n/a	n/a	h6	23.0	4.0	HL	49.0	34.0	60.0	40.0	X	left	0.1755	8564.0
n/a	n/a	h6	23.0	5.0	HL	57.0	35.0	60.0	40.0	X	right	0.234099999905	8599.0
n/a	n/a	h6	23.0	6.0	HL	55.0	50.0	60.0	40.0	X	left	0.250600000143	8654.0
n/a	n/a	h6	23.0	7.0	HL	54.0	28.0	60.0	40.0	X	right	0.203300000191	8682.0
n/a	n/a	h6	23.0	8.0	HL	66.0	35.0	60.0	40.0	X	left	0.2505	8748.0
n/a	n/a	h6	23.0	9.0	HL	54.0	40.0	60.0	40.0	X	right	0.199799999952	8788.0
n/a	n/a	h6	24.0	0.0	LH	40.0	38.0	40.0	48.0	L	left	0.2845	8828.0
n/a	n/a	h6	24.0	1.0	LH	37.0	44.0	40.0	48.0	L	left	0.451100000143	8865.0
n/a	n/a	h6	24.0	2.0	LH	60.0	44.0	40.0	48.0	R	right	0.384699999809	8909.0
n/a	n/a	h6	24.0	3.0	LH	42.0	52.0	40.0	48.0	R	right	0.500799999952	8961.0
n/a	n/a	h6	24.0	4.0	LH	52.0	55.0	40.0	48.0	X	left	0.151599999905	9013.0
n/a	n/a	h6	24.0	5.0	LH	46.0	51.0	40.0	48.0	X	right	0.184299999952	9064.0
n/a	n/a	h6	24.0	6.0	LH	50.0	51.0	40.0	48.0	X	left	0.205200000048	9114.0
n/a	n/a	h6	24.0	7.0	LH	47.0	34.0	40.0	48.0	X	right	0.287800000191	9148.0
n/a	n/a	h6	24.0	8.0	LH	30.0	49.0	40.0	48.0	X	left	0.1845	9178.0
n/a	n/a	h6	24.0	9.0	LH	29.0	53.0	40.0	48.0	X	right	0.150799999952	9231.0
n/a	n/a	h6	25.0	0.0	LH	25.0	48.0	20.0	40.0	L	left	0.382899999857	9256.0
n/a	n/a	h6	25.0	1.0	LH	20.0	48.0	20.0	40.0	R	right	0.450700000048	9304.0
n/a	n/a	h6	25.0	2.0	LH	8.0	28.0	20.0	40.0	R	right	0.7925	9332.0
n/a	n/a	h6	25.0	3.0	LH	22.0	33.0	20.0	40.0	L	left	0.251200000048	9354.0
n/a	n/a	h6	25.0	4.0	LH	29.0	28.0	20.0	40.0	X	right	0.233900000095	9382.0
n/a	n/a	h6	25.0	5.0	LH	16.0	39.0	20.0	40.0	X	left	0.506700000048	9398.0
n/a	n/a	h6	25.0	6.0	LH	41.0	51.0	20.0	40.0	X	right	0.4515	9449.0
n/a	n/a	h6	25.0	7.0	LH	22.0	35.0	20.0	40.0	X	left	0.335	9471.0
n/a	n/a	h6	25.0	8.0	LH	30.0	50.0	20.0	40.0	X	right	0.267599999905	9521.0
n/a	n/a	h6	25.0	9.0	LH	14.0	34.0	20.0	40.0	X	left	0.29	9535.0
n/a	n/a	h6	26.0	0.0	LH	69.0	60.0	56.0	60.0	R	right	0.584799999952	9595.0
n/a	n/a	h6	26.0	1.0	LH	55.0	53.0	56.0	60.0	L	left	0.383799999952	9650.0
n/a	n/a	h6	26.0	2.0	LH	57.0	59.0	56.0	60.0	L	left	0.407300000191	9707.0
n/a	n/a	h6	26.0	3.0	LH	62.0	46.0	56.0	60.0	L	left	0.350899999857	9769.0
n/a	n/a	h6	26.0	4.0	LH	50.0	63.0	56.0	60.0	X	right	0.680899999857	9832.0
n/a	n/a	h6	26.0	5.0	LH	65.0	68.0	56.0	60.0	X	left	0.353100000143	9897.0
n/a	n/a	h6	26.0	6.0	LH	59.0	64.0	56.0	60.0	X	right	0.666700000048	9961.0
n/a	n/a	h6	26.0	7.0	LH	46.0	52.0	56.0	60.0	X	left	0.371299999952	10007.0
n/a	n/a	h6	26.0	8.0	LH	68.0	58.0	56.0	60.0	X	right	0.687099999905	10065.0
n/a	n/a	h6	26.0	9.0	LH	62.0	62.0	56.0	60.0	X	left	0.266799999952	10127.0
n/a	n/a	h1	27.0	0.0	HL	57.0	35.0	60.0	40.0	L	left	0.333	10184.0
n/a	n/a	h1	27.0	1.0	HL	63.0	50.0	60.0	40.0	R	right	0.291300000191	10234.0
n/a	n/a	h1	27.0	2.0	HL	57.0	53.0	60.0	40.0	L	left	0.235	10291.0
n/a	n/a	h1	27.0	3.0	HL	54.0	48.0	60.0	40.0	R	right	0.240600000143	10339.0
n/a	n/a	h1	27.0	4.0	HL	62.0	36.0	60.0	40.0	X	left	0.551	10401.0
n/a	n/a	h6	28.0	0.0	HL	43.0	26.0	40.0	28.0	R	right	0.551200000048	10427.0
n/a	n/a	h6	28.0	1.0	HL	31.0	21.0	40.0	28.0	R	right	0.600099999905	10448.0
n/a	n/a	h6	28.0	2.0	HL	36.0	25.0	40.0	28.0	R	right	0.384400000095	10473.0
n/a	n/a	h6	28.0	3.0	HL	40.0	23.0	40.0	28.0	L	left	0.318	10513.0
n/a	n/a	h6	28.0	4.0	HL	40.0	18.0	40.0	28.0	X	right	0.5175	10531.0
n/a	n/a	h6	28.0	5.0	HL	42.0	29.0	40.0	28.0	X	left	0.367300000191	10573.0
n/a	n/a	h6	28.0	6.0	HL	38.0	28.0	40.0	28.0	X	right	0.217899999857	10601.0
n/a	n/a	h6	28.0	7.0	HL	43.0	28.0	40.0	28.0	X	left	0.201399999857	10644.0
n/a	n/a	h6	28.0	8.0	HL	43.0	29.0	40.0	28.0	X	right	0.184399999857	10673.0
n/a	n/a	h6	28.0	9.0	HL	45.0	35.0	40.0	28.0	X	left	0.1735	10718.0
n/a	n/a	h6	29.0	0.0	LH	22.0	58.0	40.0	52.0	L	left	0.300600000143	10740.0
n/a	n/a	h6	29.0	1.0	LH	32.0	51.0	40.0	52.0	R	right	0.337200000048	10791.0
n/a	n/a	h6	29.0	2.0	LH	62.0	53.0	40.0	52.0	L	left	0.2505	10853.0
n/a	n/a	h6	29.0	3.0	LH	52.0	54.0	40.0	52.0	R	right	0.204299999952	10907.0
n/a	n/a	h6	29.0	4.0	LH	37.0	56.0	40.0	52.0	X	left	0.581400000095	10944.0
n/a	n/a	h6	29.0	5.0	LH	45.0	43.0	40.0	52.0	X	left	0.422799999952	10989.0
n/a	n/a	h6	29.0	6.0	LH	55.0	51.0	40.0	52.0	X	left	0.300700000048	11044.0
n/a	n/a	h6	29.0	7.0	LH	45.0	42.0	40.0	52.0	X	left	0.250800000191	11089.0
n/a	n/a	h6	29.0	8.0	LH	49.0	39.0	40.0	52.0	X	left	0.309400000095	11138.0
n/a	n/a	h6	29.0	9.0	LH	34.0	68.0	40.0	52.0	X	left	0.305799999952	11172.0
n/a	n/a	h1	30.0	0.0	LH	43.0	75.0	40.0	70.0	R	right	0.484	11247.0
n/a	n/a	h1	30.0	1.0	LH	30.0	80.0	40.0	70.0	R	right	0.466899999857	11327.0
n/a	n/a	h1	30.0	2.0	LH	40.0	70.0	40.0	70.0	R	right	0.401400000095	11397.0
n/a	n/a	h1	30.0	3.0	LH	22.0	65.0	40.0	70.0	L	left	0.288300000191	11419.0
n/a	n/a	h1	30.0	4.0	LH	40.0	78.0	40.0	70.0	X	right	0.573799999952	11497.0
n/a	n/a	h1	31.0	0.0	HL	60.0	66.0	68.0	60.0	R	right	0.435600000143	11563.0
n/a	n/a	h1	31.0	1.0	HL	62.0	54.0	68.0	60.0	L	left	0.267700000048	11625.0
n/a	n/a	h1	31.0	2.0	HL	76.0	51.0	68.0	60.0	L	left	0.400600000143	11701.0
n/a	n/a	h1	31.0	3.0	HL	57.0	60.0	68.0	60.0	R	right	0.337	11761.0
n/a	n/a	h1	31.0	4.0	HL	64.0	44.0	68.0	60.0	X	left	0.667900000095	11825.0
n/a	n/a	h1	32.0	0.0	HL	30.0	7.0	40.0	10.0	R	right	0.451100000143	11832.0
n/a	n/a	h1	32.0	1.0	HL	39.0	11.0	40.0	10.0	L	left	0.373399999857	11871.0
n/a	n/a	h1	32.0	2.0	HL	45.0	1.0	40.0	10.0	R	right	0.336100000143	11872.0
n/a	n/a	h1	32.0	3.0	HL	46.0	17.0	40.0	10.0	L	left	0.317200000048	11918.0
n/a	n/a	h1	32.0	4.0	HL	34.0	9.0	40.0	10.0	X	right	0.515299999952	11927.0
n/a	n/a	h6	33.0	0.0	HL	49.0	41.0	60.0	40.0	L	left	0.401699999809	11976.0
n/a	n/a	h6	33.0	1.0	HL	68.0	43.0	60.0	40.0	R	right	0.334099999905	12019.0
n/a	n/a	h6	33.0	2.0	HL	67.0	40.0	60.0	40.0	L	left	0.236400000095	12086.0
n/a	n/a	h6	33.0	3.0	HL	55.0	36.0	60.0	40.0	R	right	0.6995	12122.0
n/a	n/a	h6	33.0	4.0	HL	59.0	49.0	60.0	40.0	X	left	0.2865	12181.0
n/a	n/a	h6	33.0	5.0	HL	60.0	28.0	60.0	40.0	X	right	0.667799999952	12209.0
n/a	n/a	h6	33.0	6.0	HL	50.0	48.0	60.0	40.0	X	left	0.252400000095	12259.0
n/a	n/a	h6	33.0	7.0	HL	64.0	50.0	60.0	40.0	X	right	0.350599999905	12309.0
n/a	n/a	h6	33.0	8.0	HL	57.0	31.0	60.0	40.0	X	left	0.234599999905	12366.0
n/a	n/a	h6	33.0	9.0	HL	54.0	45.0	60.0	40.0	X	right	0.188200000048	12411.0
n/a	n/a	h6	34.0	0.0	LH	62.0	77.0	60.0	80.0	L	left	0.351299999952	12473.0
n/a	n/a	h6	34.0	1.0	LH	60.0	67.0	60.0	80.0	L	left	0.535299999952	12533.0
n/a	n/a	h6	34.0	2.0	LH	58.0	68.0	60.0	80.0	L	left	0.3675	12591.0
n/a	n/a	h6	34.0	3.0	LH	57.0	78.0	60.0	80.0	R	right	0.388899999857	12669.0
n/a	n/a	h6	34.0	4.0	LH	66.0	90.0	60.0	80.0	X	left	0.201099999905	12735.0
n/a	n/a	h6	34.0	5.0	LH	81.0	75.0	60.0	80.0	X	right	0.464899999857	12810.0
n/a	n/a	h6	34.0	6.0	LH	67.0	84.0	60.0	80.0	X	left	0.285200000048	12877.0
n/a	n/a	h6	34.0	7.0	LH	53.0	68.0	60.0	80.0	X	right	0.334700000048	12945.0
n/a	n/a	h6	34.0	8.0	LH	72.0	88.0	60.0	80.0	X	left	0.376	13017.0
n/a	n/a	h6	34.0	9.0	LH	58.0	63.0	60.0	80.0	X	right	0.89	13080.0
n/a	n/a	h6	35.0	0.0	LH	27.0	48.0	30.0	60.0	R	right	0.684700000048	13128.0
n/a	n/a	h6	35.0	1.0	LH	40.0	61.0	30.0	60.0	R	right	2.00379999995	13189.0
n/a	n/a	h6	35.0	2.0	LH	20.0	58.0	30.0	60.0	L	left	0.484799999952	13209.0
n/a	n/a	h6	35.0	3.0	LH	38.0	65.0	30.0	60.0	L	left	2.33580000019	13247.0
n/a	n/a	h6	35.0	4.0	LH	30.0	62.0	30.0	60.0	X	right	58.5796000001	13309.0
n/a	n/a	h6	35.0	5.0	LH	25.0	58.0	30.0	60.0	X	left	0.673299999952	13334.0
n/a	n/a	h6	35.0	6.0	LH	32.0	69.0	30.0	60.0	X	right	0.367900000095	13403.0
n/a	n/a	h6	35.0	7.0	LH	38.0	65.0	30.0	60.0	X	right	0.351299999952	13468.0
n/a	n/a	h6	35.0	8.0	LH	40.0	80.0	30.0	60.0	X	left	0.317700000048	13508.0
n/a	n/a	h6	35.0	9.0	LH	18.0	68.0	30.0	60.0	X	right	0.506600000143	13576.0
n/a	n/a	h1	36.0	0.0	HL	70.0	37.0	60.0	40.0	R	right	2.0499000001	13613.0
n/a	n/a	h1	36.0	1.0	HL	68.0	36.0	60.0	40.0	R	right	0.472400000095	13649.0
n/a	n/a	h1	36.0	2.0	HL	46.0	26.0	60.0	40.0	R	right	0.450799999952	13675.0
n/a	n/a	h1	36.0	3.0	HL	54.0	32.0	60.0	40.0	L	left	0.357400000095	13729.0
n/a	n/a	h1	36.0	4.0	HL	54.0	46.0	60.0	40.0	X	right	0.256799999952	13775.0
n/a	n/a	h1	37.0	0.0	LH	51.0	75.0	48.0	60.0	R	right	0.367	13850.0
n/a	n/a	h1	37.0	1.0	LH	58.0	57.0	48.0	60.0	R	right	0.373900000096	13907.0
n/a	n/a	h1	37.0	2.0	LH	46.0	58.0	48.0	60.0	L	left	0.2725	13953.0
n/a	n/a	h1	37.0	3.0	LH	40.0	48.0	48.0	60.0	R	right	0.440900000096	14001.0
n/a	n/a	h1	37.0	4.0	LH	42.0	54.0	48.0	60.0	X	right	0.75	14055.0
n/a	n/a	h6	38.0	0.0	HL	77.0	45.0	70.0	40.0	L	left	0.567700000048	14132.0
n/a	n/a	h6	38.0	1.0	HL	68.0	29.0	70.0	40.0	L	left	0.368399999857	14200.0
n/a	n/a	h6	38.0	2.0	HL	71.0	27.0	70.0	40.0	L	left	0.266900000095	14271.0
n/a	n/a	h6	38.0	3.0	HL	82.0	35.0	70.0	40.0	R	right	0.287900000095	14306.0
n/a	n/a	h6	38.0	4.0	HL	64.0	43.0	70.0	40.0	X	left	0.5	14370.0
n/a	n/a	h6	38.0	5.0	HL	56.0	43.0	70.0	40.0	X	right	0.400900000095	14413.0
n/a	n/a	h6	38.0	6.0	HL	73.0	47.0	70.0	40.0	X	left	0.285	14486.0
n/a	n/a	h6	38.0	7.0	HL	80.0	40.0	70.0	40.0	X	right	0.2675	14526.0
n/a	n/a	h6	38.0	8.0	HL	71.0	44.0	70.0	40.0	X	left	0.317600000143	14597.0
n/a	n/a	h6	38.0	9.0	HL	83.0	48.0	70.0	40.0	X	right	0.167299999952	14645.0
n/a	n/a	h1	39.0	0.0	HL	39.0	32.0	44.0	40.0	L	left	0.301799999952	14684.0
n/a	n/a	h1	39.0	1.0	HL	36.0	52.0	44.0	40.0	L	left	0.417	14720.0
n/a	n/a	h1	39.0	2.0	HL	39.0	47.0	44.0	40.0	L	left	0.302799999952	14759.0
n/a	n/a	h1	39.0	3.0	HL	49.0	32.0	44.0	40.0	R	right	0.335100000143	14791.0
n/a	n/a	h1	39.0	4.0	HL	55.0	46.0	44.0	40.0	X	left	0.617800000191	14846.0
n/a	n/a	h6	40.0	0.0	HL	36.0	38.0	40.0	28.0	L	left	1.0054000001	14882.0
n/a	n/a	h6	40.0	1.0	HL	37.0	40.0	40.0	28.0	L	left	0.417600000143	14919.0
n/a	n/a	h6	40.0	2.0	HL	33.0	23.0	40.0	28.0	R	right	0.333700000048	14942.0
n/a	n/a	h6	40.0	3.0	HL	44.0	27.0	40.0	28.0	R	right	0.4035	14969.0
n/a	n/a	h6	40.0	4.0	HL	22.0	36.0	40.0	28.0	X	left	0.600700000048	14991.0
n/a	n/a	h6	40.0	5.0	HL	47.0	30.0	40.0	28.0	X	left	0.301199999809	15038.0
n/a	n/a	h6	40.0	6.0	HL	31.0	16.0	40.0	28.0	X	left	0.288099999905	15069.0
n/a	n/a	h6	40.0	7.0	HL	47.0	34.0	40.0	28.0	X	left	0.251199999809	15116.0
n/a	n/a	h6	40.0	8.0	HL	39.0	20.0	40.0	28.0	X	left	0.284600000143	15155.0
n/a	n/a	h6	40.0	9.0	HL	37.0	36.0	40.0	28.0	X	left	0.365799999952	15192.0
n/a	n/a	h1	41.0	0.0	LH	65.0	58.0	52.0	60.0	L	left	0.434900000095	15257.0
n/a	n/a	h1	41.0	1.0	LH	49.0	64.0	52.0	60.0	L	left	0.434600000143	15306.0
n/a	n/a	h1	41.0	2.0	LH	52.0	73.0	52.0	60.0	R	right	0.407400000095	15379.0
n/a	n/a	h1	41.0	3.0	LH	52.0	64.0	52.0	60.0	R	right	0.408299999952	15443.0
n/a	n/a	h1	41.0	4.0	LH	52.0	62.0	52.0	60.0	X	right	0.534799999952	15505.0
n/a	n/a	h1	42.0	0.0	LH	22.0	75.0	40.0	70.0	R	right	0.651199999809	15580.0
n/a	n/a	h1	42.0	1.0	LH	30.0	65.0	40.0	70.0	R	right	0.486100000143	15645.0
n/a	n/a	h1	42.0	2.0	LH	40.0	70.0	40.0	70.0	R	right	0.317	15715.0
n/a	n/a	h1	42.0	3.0	LH	43.0	80.0	40.0	70.0	L	left	0.371400000095	15758.0
n/a	n/a	h1	42.0	4.0	LH	44.0	86.0	40.0	70.0	X	right	0.451	15844.0
n/a	n/a	h1	43.0	0.0	LH	32.0	50.0	36.0	40.0	L	left	0.384899999857	15876.0
n/a	n/a	h1	43.0	1.0	LH	39.0	44.0	36.0	40.0	R	right	0.385200000048	15920.0
n/a	n/a	h1	43.0	2.0	LH	27.0	48.0	36.0	40.0	L	left	0.333399999857	15947.0
n/a	n/a	h1	43.0	3.0	LH	44.0	31.0	36.0	40.0	L	left	0.334200000048	15991.0
n/a	n/a	h1	43.0	4.0	LH	42.0	45.0	36.0	40.0	X	right	0.317599999905	16036.0
n/a	n/a	h1	44.0	0.0	HL	58.0	57.0	64.0	60.0	L	left	0.317	16094.0
n/a	n/a	h1	44.0	1.0	HL	68.0	62.0	64.0	60.0	R	right	0.317900000095	16156.0
n/a	n/a	h1	44.0	2.0	HL	61.0	75.0	64.0	60.0	L	left	0.268799999952	16217.0
n/a	n/a	h1	44.0	3.0	HL	44.0	57.0	64.0	60.0	R	right	0.291200000048	16274.0
n/a	n/a	h1	44.0	4.0	HL	65.0	64.0	64.0	60.0	X	right	0.785299999952	16338.0
n/a	n/a	h1	45.0	0.0	HL	60.0	55.0	72.0	60.0	L	left	0.301599999905	16398.0
n/a	n/a	h1	45.0	1.0	HL	69.0	48.0	72.0	60.0	R	right	0.367599999905	16446.0
n/a	n/a	h1	45.0	2.0	HL	62.0	75.0	72.0	60.0	L	left	0.300700000048	16508.0
n/a	n/a	h1	45.0	3.0	HL	69.0	50.0	72.0	60.0	R	right	0.272799999952	16558.0
n/a	n/a	h1	45.0	4.0	HL	75.0	58.0	72.0	60.0	X	left	0.588700000048	16633.0
n/a	n/a	h6	46.0	0.0	LH	72.0	71.0	60.0	64.0	L	left	0.434900000095	16705.0
n/a	n/a	h6	46.0	1.0	LH	61.0	87.0	60.0	64.0	L	left	0.434799999952	16766.0
n/a	n/a	h6	46.0	2.0	LH	49.0	70.0	60.0	64.0	R	right	0.502299999952	16836.0
n/a	n/a	h6	46.0	3.0	LH	61.0	65.0	60.0	64.0	R	right	0.301299999952	16901.0
n/a	n/a	h6	46.0	4.0	LH	70.0	72.0	60.0	64.0	X	left	0.418200000048	16971.0
n/a	n/a	h6	46.0	5.0	LH	69.0	65.0	60.0	64.0	X	right	0.385100000143	17036.0
n/a	n/a	h6	46.0	6.0	LH	60.0	52.0	60.0	64.0	X	left	0.252299999952	17096.0
n/a	n/a	h6	46.0	7.0	LH	63.0	61.0	60.0	64.0	X	right	0.166900000095	17157.0
n/a	n/a	h6	46.0	8.0	LH	58.0	76.0	60.0	64.0	X	left	0.1525	17215.0
n/a	n/a	h6	46.0	9.0	LH	54.0	59.0	60.0	64.0	X	right	1.1750999999	17274.0
n/a	n/a	h1	47.0	0.0	HL	67.0	59.0	68.0	60.0	L	left	0.668	17341.0
n/a	n/a	h1	47.0	1.0	HL	54.0	58.0	68.0	60.0	R	right	0.350799999952	17399.0
n/a	n/a	h1	47.0	2.0	HL	57.0	48.0	68.0	60.0	L	left	0.268599999905	17456.0
n/a	n/a	h1	47.0	3.0	HL	65.0	61.0	68.0	60.0	L	left	0.368800000191	17521.0
n/a	n/a	h1	47.0	4.0	HL	70.0	45.0	68.0	60.0	X	right	0.367700000048	17566.0
n/a	n/a	h1	48.0	0.0	HL	67.0	16.0	60.0	30.0	R	right	0.419899999857	17582.0
n/a	n/a	h1	48.0	1.0	HL	67.0	38.0	60.0	30.0	R	right	0.434700000048	17620.0
n/a	n/a	h1	48.0	2.0	HL	83.0	27.0	60.0	30.0	R	right	0.285400000095	17647.0
n/a	n/a	h1	48.0	3.0	HL	55.0	34.0	60.0	30.0	L	left	0.334400000095	17702.0
n/a	n/a	h1	48.0	4.0	HL	70.0	22.0	60.0	30.0	X	right	0.466700000048	17724.0
n/a	n/a	h6	49.0	0.0	HL	72.0	45.0	70.0	40.0	L	left	0.300900000095	17796.0
n/a	n/a	h6	49.0	1.0	HL	68.0	29.0	70.0	40.0	L	left	0.451100000143	17864.0
n/a	n/a	h6	49.0	2.0	HL	64.0	27.0	70.0	40.0	L	left	0.402	17928.0
n/a	n/a	h6	49.0	3.0	HL	82.0	31.0	70.0	40.0	R	right	0.401599999905	17959.0
n/a	n/a	h6	49.0	4.0	HL	77.0	23.0	70.0	40.0	X	left	0.619399999857	18036.0
n/a	n/a	h6	49.0	5.0	HL	74.0	35.0	70.0	40.0	X	right	0.875799999952	18071.0
n/a	n/a	h6	49.0	6.0	HL	86.0	53.0	70.0	40.0	X	right	0.487100000143	18124.0
n/a	n/a	h6	49.0	7.0	HL	68.0	32.0	70.0	40.0	X	right	0.267700000048	18156.0
n/a	n/a	h6	49.0	8.0	HL	71.0	27.0	70.0	40.0	X	right	0.2695	18183.0
n/a	n/a	h6	49.0	9.0	HL	67.0	43.0	70.0	40.0	X	right	0.234200000048	18226.0
n/a	n/a	h6	50.0	0.0	HL	89.0	65.0	90.0	60.0	L	left	0.500899999857	18315.0
n/a	n/a	h6	50.0	1.0	HL	88.0	57.0	90.0	60.0	L	left	0.453	18403.0
n/a	n/a	h6	50.0	2.0	HL	84.0	72.0	90.0	60.0	R	right	0.384799999952	18475.0
n/a	n/a	h6	50.0	3.0	HL	76.0	67.0	90.0	60.0	R	right	0.401	18542.0
n/a	n/a	h6	50.0	4.0	HL	96.0	66.0	90.0	60.0	X	left	0.652100000143	18638.0
n/a	n/a	h6	50.0	5.0	HL	99.0	61.0	90.0	60.0	X	right	0.3515	18699.0
n/a	n/a	h6	50.0	6.0	HL	84.0	67.0	90.0	60.0	X	left	0.184200000048	18783.0
n/a	n/a	h6	50.0	7.0	HL	91.0	70.0	90.0	60.0	X	right	0.158399999857	18853.0
n/a	n/a	h6	50.0	8.0	HL	85.0	51.0	90.0	60.0	X	left	0.167799999952	18938.0
n/a	n/a	h6	50.0	9.0	HL	83.0	59.0	90.0	60.0	X	right	0.169599999905	18997.0
n/a	n/a	h6	51.0	0.0	HL	60.0	51.0	60.0	52.0	R	right	0.4235	19048.0
n/a	n/a	h6	51.0	1.0	HL	55.0	43.0	60.0	52.0	L	left	0.351299999952	19103.0
n/a	n/a	h6	51.0	2.0	HL	59.0	62.0	60.0	52.0	L	left	0.523	19162.0
n/a	n/a	h6	51.0	3.0	HL	53.0	52.0	60.0	52.0	R	right	0.302799999952	19214.0
n/a	n/a	h6	51.0	4.0	HL	52.0	57.0	60.0	52.0	X	right	0.756600000143	19271.0
n/a	n/a	h6	51.0	5.0	HL	78.0	49.0	60.0	52.0	X	left	0.550600000143	19349.0
n/a	n/a	h6	51.0	6.0	HL	44.0	61.0	60.0	52.0	X	right	0.3375	19410.0
n/a	n/a	h6	51.0	7.0	HL	65.0	44.0	60.0	52.0	X	left	0.167400000095	19475.0
n/a	n/a	h6	51.0	8.0	HL	60.0	42.0	60.0	52.0	X	right	0.151299999952	19517.0
n/a	n/a	h6	51.0	9.0	HL	59.0	67.0	60.0	52.0	X	left	0.154600000143	19576.0
n/a	n/a	h6	52.0	0.0	LH	40.0	38.0	40.0	48.0	L	left	1.05029999995	19616.0
n/a	n/a	h6	52.0	1.0	LH	42.0	44.0	40.0	48.0	L	left	0.774099999905	19658.0
n/a	n/a	h6	52.0	2.0	LH	60.0	47.0	40.0	48.0	R	right	0.417099999905	19705.0
n/a	n/a	h6	52.0	3.0	LH	37.0	52.0	40.0	48.0	R	right	0.384400000095	19757.0
n/a	n/a	h6	52.0	4.0	LH	31.0	59.0	40.0	48.0	X	left	0.5225	19788.0
n/a	n/a	h6	52.0	5.0	LH	39.0	40.0	40.0	48.0	X	right	0.367100000143	19828.0
n/a	n/a	h6	52.0	6.0	LH	43.0	44.0	40.0	48.0	X	left	0.2345	19871.0
n/a	n/a	h6	52.0	7.0	LH	50.0	47.0	40.0	48.0	X	right	0.153399999857	19918.0
n/a	n/a	h6	52.0	8.0	LH	55.0	41.0	40.0	48.0	X	left	0.150399999857	19973.0
n/a	n/a	h6	52.0	9.0	LH	34.0	45.0	40.0	48.0	X	right	0.167399999857	20018.0
n/a	n/a	h6	53.0	0.0	LH	19.0	45.0	30.0	60.0	R	right	0.452400000095	20063.0
n/a	n/a	h6	53.0	1.0	LH	39.0	62.0	30.0	60.0	L	left	0.339700000048	20102.0
n/a	n/a	h6	53.0	2.0	LH	24.0	65.0	30.0	60.0	L	left	0.618199999809	20126.0
n/a	n/a	h6	53.0	3.0	LH	42.0	55.0	30.0	60.0	L	left	0.351700000048	20168.0
n/a	n/a	h6	53.0	4.0	LH	37.0	72.0	30.0	60.0	X	right	0.369700000048	20240.0
n/a	n/a	h6	53.0	5.0	LH	31.0	61.0	30.0	60.0	X	left	0.534	20271.0
n/a	n/a	h6	53.0	6.0	LH	33.0	50.0	30.0	60.0	X	right	0.336399999857	20321.0
n/a	n/a	h6	53.0	7.0	LH	29.0	88.0	30.0	60.0	X	left	0.356599999905	20350.0
n/a	n/a	h6	53.0	8.0	LH	11.0	62.0	30.0	60.0	X	right	0.200399999857	20412.0
n/a	n/a	h6	53.0	9.0	LH	44.0	70.0	30.0	60.0	X	left	0.234399999857	20456.0
n/a	n/a	h6	54.0	0.0	HL	41.0	38.0	40.0	28.0	L	left	0.3845	20497.0
n/a	n/a	h6	54.0	1.0	HL	37.0	27.0	40.0	28.0	L	left	0.501099999905	20534.0
n/a	n/a	h6	54.0	2.0	HL	33.0	23.0	40.0	28.0	R	right	0.434600000143	20557.0
n/a	n/a	h6	54.0	3.0	HL	44.0	40.0	40.0	28.0	R	right	0.584600000143	20597.0
n/a	n/a	h6	54.0	4.0	HL	27.0	30.0	40.0	28.0	X	left	0.401	20624.0
n/a	n/a	h6	54.0	5.0	HL	36.0	28.0	40.0	28.0	X	right	0.367400000095	20652.0
n/a	n/a	h6	54.0	6.0	HL	45.0	35.0	40.0	28.0	X	left	0.284200000048	20697.0
n/a	n/a	h6	54.0	7.0	HL	44.0	28.0	40.0	28.0	X	right	0.2365	20725.0
n/a	n/a	h6	54.0	8.0	HL	42.0	30.0	40.0	28.0	X	left	0.218	20767.0
n/a	n/a	h6	54.0	9.0	HL	45.0	31.0	40.0	28.0	X	right	0.2175	20798.0
n/a	n/a	h1	55.0	0.0	LH	40.0	64.0	40.0	52.0	L	left	0.284099999905	20838.0
n/a	n/a	h1	55.0	1.0	LH	34.0	52.0	40.0	52.0	L	left	0.401300000191	20872.0
n/a	n/a	h1	55.0	2.0	LH	40.0	58.0	40.0	52.0	R	right	0.307299999952	20930.0
n/a	n/a	h1	55.0	3.0	LH	58.0	62.0	40.0	52.0	L	left	0.400899999857	20988.0
n/a	n/a	h1	55.0	4.0	LH	44.0	48.0	40.0	52.0	X	right	0.521600000143	21036.0
n/a	n/a	h6	56.0	0.0	HL	60.0	56.0	60.0	52.0	R	right	4.4215	21092.0
n/a	n/a	h6	56.0	1.0	HL	67.0	49.0	60.0	52.0	L	left	0.376099999905	21159.0
n/a	n/a	h6	56.0	2.0	HL	67.0	51.0	60.0	52.0	R	right	0.202299999952	21210.0
n/a	n/a	h6	56.0	3.0	HL	69.0	59.0	60.0	52.0	R	right	0.421199999809	21269.0
n/a	n/a	h6	56.0	4.0	HL	70.0	78.0	60.0	52.0	X	left	0.601700000048	21339.0
n/a	n/a	h6	56.0	5.0	HL	55.0	45.0	60.0	52.0	X	left	0.467799999952	21394.0
n/a	n/a	h6	56.0	6.0	HL	75.0	51.0	60.0	52.0	X	left	0.268100000143	21469.0
n/a	n/a	h6	56.0	7.0	HL	66.0	67.0	60.0	52.0	X	left	0.242699999809	21535.0
n/a	n/a	h6	56.0	8.0	HL	61.0	45.0	60.0	52.0	X	left	0.1375	21596.0
n/a	n/a	h6	56.0	9.0	HL	60.0	63.0	60.0	52.0	X	left	0.134100000143	21656.0
n/a	n/a	h6	57.0	0.0	HL	39.0	36.0	40.0	36.0	R	right	2.1885999999	21692.0
n/a	n/a	h6	57.0	1.0	HL	31.0	38.0	40.0	36.0	R	right	0.401099999905	21730.0
n/a	n/a	h6	57.0	2.0	HL	46.0	27.0	40.0	36.0	L	left	0.301700000048	21776.0
n/a	n/a	h6	57.0	3.0	HL	35.0	50.0	40.0	36.0	L	left	0.338899999857	21811.0
n/a	n/a	h6	57.0	4.0	HL	46.0	20.0	40.0	36.0	X	right	0.551399999857	21831.0
n/a	n/a	h6	57.0	5.0	HL	45.0	22.0	40.0	36.0	X	right	0.520700000048	21853.0
n/a	n/a	h6	57.0	6.0	HL	31.0	42.0	40.0	36.0	X	left	0.601600000143	21884.0
n/a	n/a	h6	57.0	7.0	HL	40.0	31.0	40.0	36.0	X	right	0.805800000191	21915.0
n/a	n/a	h6	57.0	8.0	HL	49.0	43.0	40.0	36.0	X	left	0.568399999857	21964.0
n/a	n/a	h6	57.0	9.0	HL	26.0	21.0	40.0	36.0	X	right	0.600800000191	21985.0
n/a	n/a	h1	58.0	0.0	HL	75.0	57.0	64.0	60.0	L	left	0.821399999857	22060.0
n/a	n/a	h1	58.0	1.0	HL	68.0	75.0	64.0	60.0	R	right	0.617400000095	22135.0
n/a	n/a	h1	58.0	2.0	HL	61.0	62.0	64.0	60.0	L	left	0.317799999953	22196.0
n/a	n/a	h1	58.0	3.0	HL	44.0	57.0	64.0	60.0	R	right	0.217300000191	22253.0
n/a	n/a	h1	58.0	4.0	HL	58.0	52.0	64.0	60.0	X	right	0.788	22305.0
n/a	n/a	h6	59.0	0.0	LH	19.0	65.0	30.0	60.0	R	right	0.742299999952	22370.0
n/a	n/a	h6	59.0	1.0	LH	39.0	62.0	30.0	60.0	L	left	0.267299999952	22409.0
n/a	n/a	h6	59.0	2.0	LH	24.0	45.0	30.0	60.0	L	left	0.384700000048	22433.0
n/a	n/a	h6	59.0	3.0	LH	25.0	55.0	30.0	60.0	L	left	0.337799999952	22458.0
n/a	n/a	h6	59.0	4.0	LH	40.0	55.0	30.0	60.0	X	right	0.500399999857	22513.0
n/a	n/a	h6	59.0	5.0	LH	23.0	71.0	30.0	60.0	X	left	0.322	22536.0
n/a	n/a	h6	59.0	6.0	LH	42.0	65.0	30.0	60.0	X	right	0.238299999952	22601.0
n/a	n/a	h6	59.0	7.0	LH	28.0	55.0	30.0	60.0	X	left	0.206099999905	22629.0
n/a	n/a	h6	59.0	8.0	LH	17.0	65.0	30.0	60.0	X	right	0.1515	22694.0
n/a	n/a	h6	59.0	9.0	LH	30.0	64.0	30.0	60.0	X	left	0.184199999809	22724.0
n/a	n/a	h6	60.0	0.0	LH	69.0	62.0	56.0	60.0	R	right	0.367900000095	22786.0
n/a	n/a	h6	60.0	1.0	LH	54.0	53.0	56.0	60.0	L	left	0.384900000095	22840.0
n/a	n/a	h6	60.0	2.0	LH	57.0	59.0	56.0	60.0	L	left	0.403400000095	22897.0
n/a	n/a	h6	60.0	3.0	LH	62.0	60.0	56.0	60.0	L	left	0.388399999857	22959.0
n/a	n/a	h6	60.0	4.0	LH	57.0	51.0	56.0	60.0	X	right	0.539099999905	23010.0
n/a	n/a	h6	60.0	5.0	LH	58.0	50.0	56.0	60.0	X	right	0.617599999905	23060.0
n/a	n/a	h6	60.0	6.0	LH	65.0	48.0	56.0	60.0	X	left	0.568600000143	23125.0
n/a	n/a	h6	60.0	7.0	LH	64.0	68.0	56.0	60.0	X	right	0.368600000143	23193.0
n/a	n/a	h6	60.0	8.0	LH	55.0	54.0	56.0	60.0	X	left	0.269900000095	23248.0
n/a	n/a	h6	60.0	9.0	LH	44.0	46.0	56.0	60.0	X	right	0.434100000143	23294.0
n/a	n/a	h1	61.0	0.0	HL	54.0	35.0	60.0	40.0	L	left	0.437300000191	23348.0
n/a	n/a	h1	61.0	1.0	HL	63.0	42.0	60.0	40.0	R	right	0.389700000048	23390.0
n/a	n/a	h1	61.0	2.0	HL	57.0	53.0	60.0	40.0	L	left	0.223400000096	23447.0
n/a	n/a	h1	61.0	3.0	HL	57.0	48.0	60.0	40.0	R	right	0.2175	23495.0
n/a	n/a	h1	61.0	4.0	HL	58.0	50.0	60.0	40.0	X	left	0.315599999905	23553.0
n/a	n/a	h6	62.0	0.0	HL	60.0	56.0	60.0	52.0	R	right	0.717799999952	23609.0
n/a	n/a	h6	62.0	1.0	HL	62.0	49.0	60.0	52.0	L	left	0.668099999905	23671.0
n/a	n/a	h6	62.0	2.0	HL	67.0	51.0	60.0	52.0	R	right	0.552200000048	23722.0
n/a	n/a	h6	62.0	3.0	HL	69.0	53.0	60.0	52.0	R	right	0.434599999905	23775.0
n/a	n/a	h6	62.0	4.0	HL	57.0	49.0	60.0	52.0	X	left	0.651799999952	23832.0
n/a	n/a	h6	62.0	5.0	HL	62.0	39.0	60.0	52.0	X	right	0.4735	23871.0
n/a	n/a	h6	62.0	6.0	HL	42.0	47.0	60.0	52.0	X	left	0.317900000095	23913.0
n/a	n/a	h6	62.0	7.0	HL	69.0	36.0	60.0	52.0	X	right	0.167699999809	23949.0
n/a	n/a	h6	62.0	8.0	HL	67.0	45.0	60.0	52.0	X	left	0.173800000191	24016.0
n/a	n/a	h6	62.0	9.0	HL	58.0	56.0	60.0	52.0	X	right	0.085899999857	24072.0
n/a	n/a	h6	63.0	0.0	LH	65.0	77.0	60.0	80.0	L	left	0.537399999857	24137.0
n/a	n/a	h6	63.0	1.0	LH	60.0	78.0	60.0	80.0	L	left	0.701399999857	24197.0
n/a	n/a	h6	63.0	2.0	LH	58.0	68.0	60.0	80.0	L	left	0.400700000048	24255.0
n/a	n/a	h6	63.0	3.0	LH	57.0	81.0	60.0	80.0	R	right	0.674	24336.0
n/a	n/a	h6	63.0	4.0	LH	64.0	82.0	60.0	80.0	X	left	0.551799999952	24400.0
n/a	n/a	h6	63.0	5.0	LH	53.0	89.0	60.0	80.0	X	right	0.269299999952	24489.0
n/a	n/a	h6	63.0	6.0	LH	58.0	72.0	60.0	80.0	X	left	0.233099999905	24547.0
n/a	n/a	h6	63.0	7.0	LH	56.0	73.0	60.0	80.0	X	right	0.1845	24620.0
n/a	n/a	h6	63.0	8.0	LH	59.0	91.0	60.0	80.0	X	left	0.169299999952	24679.0
n/a	n/a	h6	63.0	9.0	LH	48.0	67.0	60.0	80.0	X	right	0.067	24746.0
n/a	n/a	h1	64.0	0.0	LH	25.0	38.0	32.0	40.0	L	left	0.384299999952	24771.0
n/a	n/a	h1	64.0	1.0	LH	44.0	57.0	32.0	40.0	L	left	0.434400000095	24815.0
n/a	n/a	h1	64.0	2.0	LH	29.0	47.0	32.0	40.0	R	right	0.588299999952	24862.0
n/a	n/a	h1	64.0	3.0	LH	36.0	31.0	32.0	40.0	L	left	0.250799999952	24898.0
n/a	n/a	h1	64.0	4.0	LH	14.0	23.0	32.0	40.0	X	right	0.423	24921.0
n/a	n/a	h6	65.0	0.0	LH	53.0	39.0	40.0	48.0	R	right	2.52120000005	24960.0
n/a	n/a	h6	65.0	1.0	LH	50.0	55.0	40.0	48.0	R	right	0.541099999905	25015.0
n/a	n/a	h6	65.0	2.0	LH	44.0	56.0	40.0	48.0	L	left	0.4175	25059.0
n/a	n/a	h6	65.0	3.0	LH	49.0	50.0	40.0	48.0	R	right	0.267599999905	25109.0
n/a	n/a	h6	65.0	4.0	LH	37.0	38.0	40.0	48.0	X	left	0.485	25146.0
n/a	n/a	h6	65.0	5.0	LH	46.0	28.0	40.0	48.0	X	left	0.3885	25192.0
n/a	n/a	h6	65.0	6.0	LH	44.0	58.0	40.0	48.0	X	left	0.351099999905	25236.0
n/a	n/a	h6	65.0	7.0	LH	51.0	64.0	40.0	48.0	X	left	0.267700000048	25287.0
n/a	n/a	h6	65.0	8.0	LH	36.0	56.0	40.0	48.0	X	left	0.184300000191	25323.0
n/a	n/a	h6	65.0	9.0	LH	47.0	42.0	40.0	48.0	X	left	0.217	25370.0
n/a	n/a	h6	66.0	0.0	HL	28.0	15.0	40.0	20.0	L	left	0.417900000095	25398.0
n/a	n/a	h6	66.0	1.0	HL	53.0	16.0	40.0	20.0	L	left	0.367600000143	25451.0
n/a	n/a	h6	66.0	2.0	HL	34.0	28.0	40.0	20.0	L	left	0.2695	25485.0
n/a	n/a	h6	66.0	3.0	HL	53.0	21.0	40.0	20.0	R	right	0.404400000095	25506.0
n/a	n/a	h6	66.0	4.0	HL	40.0	24.0	40.0	20.0	X	right	0.817900000095	25530.0
n/a	n/a	h6	66.0	5.0	HL	52.0	24.0	40.0	20.0	X	left	0.4055	25582.0
n/a	n/a	h6	66.0	6.0	HL	55.0	16.0	40.0	20.0	X	right	0.183799999952	25598.0
n/a	n/a	h6	66.0	7.0	HL	24.0	24.0	40.0	20.0	X	left	0.152799999952	25622.0
n/a	n/a	h6	66.0	8.0	HL	40.0	23.0	40.0	20.0	X	right	0.188	25645.0
n/a	n/a	h6	66.0	9.0	HL	45.0	28.0	40.0	20.0	X	left	0.1675	25690.0
n/a	n/a	h6	67.0	0.0	LH	60.0	79.0	60.0	72.0	R	right	0.891199999809	25769.0
n/a	n/a	h6	67.0	1.0	LH	57.0	66.0	60.0	72.0	R	right	0.417299999952	25835.0
n/a	n/a	h6	67.0	2.0	LH	64.0	65.0	60.0	72.0	L	left	0.434799999952	25899.0
n/a	n/a	h6	67.0	3.0	LH	63.0	69.0	60.0	72.0	R	right	0.372599999905	25968.0
n/a	n/a	h6	67.0	4.0	LH	65.0	75.0	60.0	72.0	X	left	0.483100000143	26033.0
n/a	n/a	h6	67.0	5.0	LH	52.0	77.0	60.0	72.0	X	right	0.254799999952	26110.0
n/a	n/a	h6	67.0	6.0	LH	73.0	86.0	60.0	72.0	X	left	0.150899999857	26183.0
n/a	n/a	h6	67.0	7.0	LH	66.0	80.0	60.0	72.0	X	right	0.105899999857	26263.0
n/a	n/a	h6	67.0	8.0	LH	57.0	73.0	60.0	72.0	X	left	0.168	26320.0
n/a	n/a	h6	67.0	9.0	LH	60.0	75.0	60.0	72.0	X	right	0.0740000000001	26395.0
n/a	n/a	h1	68.0	0.0	LH	45.0	56.0	40.0	60.0	R	right	0.534	26451.0
n/a	n/a	h1	68.0	1.0	LH	29.0	52.0	40.0	60.0	R	right	1.0185	26503.0
n/a	n/a	h1	68.0	2.0	LH	47.0	60.0	40.0	60.0	R	right	0.622100000143	26563.0
n/a	n/a	h1	68.0	3.0	LH	36.0	57.0	40.0	60.0	L	left	0.668200000048	26599.0
n/a	n/a	h1	68.0	4.0	LH	41.0	51.0	40.0	60.0	X	right	0.705200000048	26650.0
n/a	n/a	h6	69.0	0.0	LH	25.0	48.0	20.0	40.0	L	left	0.752	26675.0
n/a	n/a	h6	69.0	1.0	LH	20.0	33.0	20.0	40.0	R	right	0.486799999952	26708.0
n/a	n/a	h6	69.0	2.0	LH	8.0	50.0	20.0	40.0	R	right	0.521600000143	26758.0
n/a	n/a	h6	69.0	3.0	LH	14.0	48.0	20.0	40.0	L	left	0.400799999952	26772.0
n/a	n/a	h6	69.0	4.0	LH	22.0	28.0	20.0	40.0	X	right	0.284200000048	26800.0
n/a	n/a	h6	69.0	5.0	LH	24.0	35.0	20.0	40.0	X	left	0.221400000095	26824.0
n/a	n/a	h6	69.0	6.0	LH	22.0	40.0	20.0	40.0	X	right	0.0175000000002	26864.0
n/a	n/a	h6	69.0	7.0	LH	27.0	49.0	20.0	40.0	X	left	0.138099999905	26891.0
n/a	n/a	h6	69.0	8.0	LH	31.0	37.0	20.0	40.0	X	right	0.0509000000955	26928.0
n/a	n/a	h6	69.0	9.0	LH	26.0	57.0	20.0	40.0	X	left	0.0844999999999	26954.0
n/a	n/a	h1	70.0	0.0	LH	32.0	76.0	40.0	60.0	L	left	0.4845	26986.0
n/a	n/a	h1	70.0	1.0	LH	37.0	65.0	40.0	60.0	R	right	0.370699999809	27051.0
n/a	n/a	h1	70.0	2.0	LH	37.0	68.0	40.0	60.0	L	left	0.539300000191	27088.0
n/a	n/a	h1	70.0	3.0	LH	46.0	55.0	40.0	60.0	R	right	0.534299999952	27143.0
n/a	n/a	h1	70.0	4.0	LH	31.0	69.0	40.0	60.0	X	left	0.568099999904	27174.0
n/a	n/a	h1	71.0	0.0	LH	48.0	67.0	40.0	70.0	R	right	0.952099999904	27241.0
n/a	n/a	h1	71.0	1.0	LH	31.0	62.0	40.0	70.0	L	left	0.3515	27272.0
n/a	n/a	h1	71.0	2.0	LH	39.0	65.0	40.0	70.0	R	right	0.350899999857	27337.0
n/a	n/a	h1	71.0	3.0	LH	50.0	62.0	40.0	70.0	L	left	0.250699999809	27387.0
n/a	n/a	h1	71.0	4.0	LH	47.0	64.0	40.0	70.0	X	right	0.551	27451.0
n/a	n/a	h1	72.0	0.0	LH	32.0	50.0	36.0	40.0	L	left	0.321900000095	27483.0
n/a	n/a	h1	72.0	1.0	LH	39.0	48.0	36.0	40.0	R	right	0.351299999952	27531.0
n/a	n/a	h1	72.0	2.0	LH	32.0	44.0	36.0	40.0	L	left	0.2505	27563.0
n/a	n/a	h1	72.0	3.0	LH	44.0	31.0	36.0	40.0	L	left	0.500900000095	27607.0
n/a	n/a	h1	72.0	4.0	LH	27.0	33.0	36.0	40.0	X	right	0.598099999905	27640.0
n/a	n/a	h1	73.0	0.0	LH	29.0	30.0	28.0	40.0	R	right	0.451299999952	27670.0
n/a	n/a	h1	73.0	1.0	LH	27.0	39.0	28.0	40.0	L	left	0.417599999904	27697.0
n/a	n/a	h1	73.0	2.0	LH	25.0	54.0	28.0	40.0	R	right	0.317600000143	27751.0
n/a	n/a	h1	73.0	3.0	LH	31.0	44.0	28.0	40.0	L	left	0.504099999905	27782.0
n/a	n/a	h1	73.0	4.0	LH	26.0	45.0	28.0	40.0	X	right	0.684799999952	27827.0
n/a	n/a	h1	74.0	0.0	LH	46.0	75.0	48.0	60.0	R	right	0.389099999905	27902.0
n/a	n/a	h1	74.0	1.0	LH	58.0	48.0	48.0	60.0	R	right	0.551	27950.0
n/a	n/a	h1	74.0	2.0	LH	51.0	58.0	48.0	60.0	L	left	0.304200000048	28001.0
n/a	n/a	h1	74.0	3.0	LH	40.0	57.0	48.0	60.0	R	right	0.205100000143	28058.0
n/a	n/a	h1	74.0	4.0	LH	29.0	51.0	48.0	60.0	X	left	0.556899999857	28087.0
n/a	n/a	h1	75.0	0.0	LH	58.0	43.0	56.0	60.0	L	left	0.402599999905	28145.0
n/a	n/a	h1	75.0	1.0	LH	33.0	67.0	56.0	60.0	R	right	0.334700000048	28212.0
n/a	n/a	h1	75.0	2.0	LH	55.0	59.0	56.0	60.0	L	left	0.2515	28267.0
n/a	n/a	h1	75.0	3.0	LH	42.0	64.0	56.0	60.0	R	right	0.238299999952	28331.0
n/a	n/a	h1	75.0	4.0	LH	66.0	59.0	56.0	60.0	X	left	0.452900000095	28397.0
n/a	n/a	h6	76.0	0.0	HL	55.0	61.0	60.0	52.0	R	right	0.401	28458.0
n/a	n/a	h6	76.0	1.0	HL	60.0	43.0	60.0	52.0	L	left	0.400899999857	28518.0
n/a	n/a	h6	76.0	2.0	HL	65.0	62.0	60.0	52.0	L	left	0.400799999952	28583.0
n/a	n/a	h6	76.0	3.0	HL	53.0	41.0	60.0	52.0	R	right	0.284100000143	28624.0
n/a	n/a	h6	76.0	4.0	HL	61.0	57.0	60.0	52.0	X	left	0.157099999905	28685.0
n/a	n/a	h6	76.0	5.0	HL	59.0	67.0	60.0	52.0	X	left	0.536599999905	28744.0
n/a	n/a	h6	76.0	6.0	HL	42.0	45.0	60.0	52.0	X	left	0.324099999905	28786.0
n/a	n/a	h6	76.0	7.0	HL	60.0	45.0	60.0	52.0	X	left	0.217399999857	28846.0
n/a	n/a	h6	76.0	8.0	HL	64.0	53.0	60.0	52.0	X	left	0.221900000095	28910.0
n/a	n/a	h6	76.0	9.0	HL	56.0	38.0	60.0	52.0	X	left	0.234099999905	28966.0
n/a	n/a	h1	77.0	0.0	LH	52.0	73.0	52.0	60.0	L	left	0.367799999952	29018.0
n/a	n/a	h1	77.0	1.0	LH	49.0	64.0	52.0	60.0	L	left	0.600799999952	29067.0
n/a	n/a	h1	77.0	2.0	LH	65.0	58.0	52.0	60.0	R	right	0.284099999905	29125.0
n/a	n/a	h1	77.0	3.0	LH	52.0	61.0	52.0	60.0	R	right	0.369200000048	29186.0
n/a	n/a	h1	77.0	4.0	LH	57.0	64.0	52.0	60.0	X	left	0.5015	29243.0
n/a	n/a	h6	78.0	0.0	LH	64.0	66.0	60.0	72.0	R	right	0.634400000095	29309.0
n/a	n/a	h6	78.0	1.0	LH	57.0	79.0	60.0	72.0	R	right	0.434	29388.0
n/a	n/a	h6	78.0	2.0	LH	60.0	65.0	60.0	72.0	L	left	0.320299999952	29448.0
n/a	n/a	h6	78.0	3.0	LH	63.0	63.0	60.0	72.0	R	right	0.484	29511.0
n/a	n/a	h6	78.0	4.0	LH	67.0	90.0	60.0	72.0	X	left	0.472899999857	29578.0
n/a	n/a	h6	78.0	5.0	LH	56.0	69.0	60.0	72.0	X	left	0.434	29634.0
n/a	n/a	h6	78.0	6.0	LH	53.0	64.0	60.0	72.0	X	left	0.342599999904	29687.0
n/a	n/a	h6	78.0	7.0	LH	65.0	72.0	60.0	72.0	X	left	0.317	29752.0
n/a	n/a	h6	78.0	8.0	LH	54.0	66.0	60.0	72.0	X	left	0.350700000048	29806.0
n/a	n/a	h6	78.0	9.0	LH	63.0	62.0	60.0	72.0	X	left	0.335599999905	29869.0
n/a	n/a	h1	79.0	0.0	LH	36.0	57.0	40.0	60.0	R	right	0.4845	29926.0
n/a	n/a	h1	79.0	1.0	LH	29.0	52.0	40.0	60.0	R	right	0.386800000191	29978.0
n/a	n/a	h1	79.0	2.0	LH	47.0	60.0	40.0	60.0	R	right	0.418	30038.0
n/a	n/a	h1	79.0	3.0	LH	45.0	56.0	40.0	60.0	L	left	0.334100000143	30083.0
n/a	n/a	h1	79.0	4.0	LH	31.0	50.0	40.0	60.0	X	right	0.557599999905	30133.0
