onset	duration	trial_type	trial_number	bandit_num	mean_type	left_reward	right_reward	left_mean	right_mean	force_pos	response	response_time	points
n/a	n/a	h1	0.0	0.0	LH	40.0	64.0	40.0	52.0	L	left	8.17420000002	40.0
n/a	n/a	h1	0.0	1.0	LH	44.0	48.0	40.0	52.0	L	left	0.289600000024	84.0
n/a	n/a	h1	0.0	2.0	LH	58.0	52.0	40.0	52.0	R	right	0.408199999988	136.0
n/a	n/a	h1	0.0	3.0	LH	40.0	62.0	40.0	52.0	L	left	0.4265	176.0
n/a	n/a	h1	0.0	4.0	LH	52.0	40.0	40.0	52.0	X	right	1.149	216.0
n/a	n/a	h6	1.0	0.0	LH	58.0	58.0	60.0	64.0	R	right	0.554400000006	274.0
n/a	n/a	h6	1.0	1.0	LH	59.0	60.0	60.0	64.0	L	left	0.600299999982	333.0
n/a	n/a	h6	1.0	2.0	LH	61.0	64.0	60.0	64.0	R	right	0.2685	397.0
n/a	n/a	h6	1.0	3.0	LH	55.0	63.0	60.0	64.0	R	right	0.433699999988	460.0
n/a	n/a	h6	1.0	4.0	LH	69.0	69.0	60.0	64.0	X	right	0.617899999976	529.0
n/a	n/a	h6	1.0	5.0	LH	58.0	77.0	60.0	64.0	X	right	1.13690000001	606.0
n/a	n/a	h6	1.0	6.0	LH	51.0	47.0	60.0	64.0	X	right	0.250599999994	653.0
n/a	n/a	h6	1.0	7.0	LH	52.0	56.0	60.0	64.0	X	right	0.185599999994	709.0
n/a	n/a	h6	1.0	8.0	LH	62.0	56.0	60.0	64.0	X	right	0.159900000006	765.0
n/a	n/a	h6	1.0	9.0	LH	61.0	72.0	60.0	64.0	X	right	0.084599999994	837.0
n/a	n/a	h1	2.0	0.0	LH	48.0	67.0	40.0	70.0	R	right	0.451299999982	904.0
n/a	n/a	h1	2.0	1.0	LH	47.0	62.0	40.0	70.0	L	left	0.417699999988	951.0
n/a	n/a	h1	2.0	2.0	LH	39.0	62.0	40.0	70.0	R	right	0.327300000012	1013.0
n/a	n/a	h1	2.0	3.0	LH	35.0	65.0	40.0	70.0	L	left	0.257900000006	1048.0
n/a	n/a	h1	2.0	4.0	LH	50.0	67.0	40.0	70.0	X	right	0.553800000012	1115.0
n/a	n/a	h1	3.0	0.0	LH	31.0	44.0	28.0	40.0	R	right	0.3545	1159.0
n/a	n/a	h1	3.0	1.0	LH	27.0	54.0	28.0	40.0	L	left	0.237199999988	1186.0
n/a	n/a	h1	3.0	2.0	LH	25.0	39.0	28.0	40.0	R	right	0.335	1225.0
n/a	n/a	h1	3.0	3.0	LH	29.0	30.0	28.0	40.0	L	left	0.276	1254.0
n/a	n/a	h1	3.0	4.0	LH	29.0	47.0	28.0	40.0	X	right	0.717699999988	1301.0
n/a	n/a	h1	4.0	0.0	HL	67.0	22.0	60.0	30.0	R	right	0.386100000024	1323.0
n/a	n/a	h1	4.0	1.0	HL	55.0	38.0	60.0	30.0	R	right	0.2685	1361.0
n/a	n/a	h1	4.0	2.0	HL	83.0	34.0	60.0	30.0	R	right	0.370299999982	1395.0
n/a	n/a	h1	4.0	3.0	HL	67.0	27.0	60.0	30.0	L	left	0.334400000006	1462.0
n/a	n/a	h1	4.0	4.0	HL	64.0	30.0	60.0	30.0	X	left	0.322099999994	1526.0
n/a	n/a	h1	5.0	0.0	HL	75.0	55.0	72.0	60.0	L	left	0.389699999988	1601.0
n/a	n/a	h1	5.0	1.0	HL	62.0	75.0	72.0	60.0	R	right	0.574099999994	1676.0
n/a	n/a	h1	5.0	2.0	HL	69.0	58.0	72.0	60.0	L	left	0.4495	1745.0
n/a	n/a	h1	5.0	3.0	HL	69.0	50.0	72.0	60.0	R	right	0.2865	1795.0
n/a	n/a	h1	5.0	4.0	HL	81.0	50.0	72.0	60.0	X	left	0.986599999994	1876.0
n/a	n/a	h1	6.0	0.0	HL	62.0	66.0	68.0	60.0	R	right	0.654300000012	1942.0
n/a	n/a	h1	6.0	1.0	HL	76.0	44.0	68.0	60.0	L	left	0.356300000012	2018.0
n/a	n/a	h1	6.0	2.0	HL	60.0	51.0	68.0	60.0	L	left	0.384599999994	2078.0
n/a	n/a	h1	6.0	3.0	HL	57.0	54.0	68.0	60.0	R	right	0.422799999982	2132.0
n/a	n/a	h1	6.0	4.0	HL	63.0	47.0	68.0	60.0	X	left	0.402900000006	2195.0
n/a	n/a	h1	7.0	0.0	HL	39.0	32.0	44.0	40.0	L	left	0.3695	2234.0
n/a	n/a	h1	7.0	1.0	HL	49.0	52.0	44.0	40.0	L	left	0.334400000006	2283.0
n/a	n/a	h1	7.0	2.0	HL	39.0	32.0	44.0	40.0	L	left	0.336300000012	2322.0
n/a	n/a	h1	7.0	3.0	HL	36.0	47.0	44.0	40.0	R	right	0.299099999994	2369.0
n/a	n/a	h1	7.0	4.0	HL	39.0	37.0	44.0	40.0	X	left	0.752099999994	2408.0
n/a	n/a	h6	8.0	0.0	HL	96.0	65.0	90.0	60.0	L	left	0.350800000012	2504.0
n/a	n/a	h6	8.0	1.0	HL	88.0	57.0	90.0	60.0	L	left	0.451699999988	2592.0
n/a	n/a	h6	8.0	2.0	HL	84.0	59.0	90.0	60.0	R	right	0.368200000018	2651.0
n/a	n/a	h6	8.0	3.0	HL	76.0	67.0	90.0	60.0	R	right	0.4515	2718.0
n/a	n/a	h6	8.0	4.0	HL	99.0	71.0	90.0	60.0	X	left	0.667799999982	2817.0
n/a	n/a	h6	8.0	5.0	HL	92.0	41.0	90.0	60.0	X	left	0.3675	2909.0
n/a	n/a	h6	8.0	6.0	HL	81.0	65.0	90.0	60.0	X	left	0.667900000006	2990.0
n/a	n/a	h6	8.0	7.0	HL	95.0	52.0	90.0	60.0	X	left	0.317800000012	3085.0
n/a	n/a	h6	8.0	8.0	HL	90.0	70.0	90.0	60.0	X	left	0.367900000006	3175.0
n/a	n/a	h6	8.0	9.0	HL	99.0	56.0	90.0	60.0	X	left	0.200800000012	3274.0
n/a	n/a	h6	9.0	0.0	HL	39.0	36.0	40.0	36.0	R	right	0.345700000018	3310.0
n/a	n/a	h6	9.0	1.0	HL	31.0	21.0	40.0	36.0	R	right	0.318200000018	3331.0
n/a	n/a	h6	9.0	2.0	HL	46.0	27.0	40.0	36.0	L	left	0.234599999994	3377.0
n/a	n/a	h6	9.0	3.0	HL	26.0	50.0	40.0	36.0	L	left	0.368400000006	3403.0
n/a	n/a	h6	9.0	4.0	HL	41.0	28.0	40.0	36.0	X	right	0.734300000012	3431.0
n/a	n/a	h6	9.0	5.0	HL	35.0	37.0	40.0	36.0	X	left	0.885199999988	3466.0
n/a	n/a	h6	9.0	6.0	HL	36.0	38.0	40.0	36.0	X	left	0.151099999994	3502.0
n/a	n/a	h6	9.0	7.0	HL	46.0	22.0	40.0	36.0	X	left	0.151100000024	3548.0
n/a	n/a	h6	9.0	8.0	HL	35.0	32.0	40.0	36.0	X	left	0.184300000012	3583.0
n/a	n/a	h6	9.0	9.0	HL	37.0	30.0	40.0	36.0	X	left	0.217599999994	3620.0
n/a	n/a	h1	10.0	0.0	HL	70.0	46.0	60.0	40.0	R	right	0.490299999982	3666.0
n/a	n/a	h1	10.0	1.0	HL	54.0	36.0	60.0	40.0	R	right	0.3285	3702.0
n/a	n/a	h1	10.0	2.0	HL	46.0	26.0	60.0	40.0	R	right	0.350900000006	3728.0
n/a	n/a	h1	10.0	3.0	HL	68.0	32.0	60.0	40.0	L	left	0.267600000024	3796.0
n/a	n/a	h1	10.0	4.0	HL	61.0	46.0	60.0	40.0	X	left	0.3345	3857.0
n/a	n/a	h1	11.0	0.0	HL	30.0	11.0	40.0	10.0	R	right	0.355400000006	3868.0
n/a	n/a	h1	11.0	1.0	HL	39.0	7.0	40.0	10.0	L	left	0.217300000012	3907.0
n/a	n/a	h1	11.0	2.0	HL	45.0	1.0	40.0	10.0	R	right	0.234099999994	3908.0
n/a	n/a	h1	11.0	3.0	HL	34.0	9.0	40.0	10.0	L	left	0.1845	3942.0
n/a	n/a	h1	11.0	4.0	HL	33.0	19.0	40.0	10.0	X	left	0.367700000018	3975.0
n/a	n/a	h6	12.0	0.0	LH	27.0	80.0	30.0	60.0	R	right	0.351400000006	4055.0
n/a	n/a	h6	12.0	1.0	LH	40.0	61.0	30.0	60.0	R	right	0.317400000006	4116.0
n/a	n/a	h6	12.0	2.0	LH	20.0	58.0	30.0	60.0	L	left	0.317799999982	4136.0
n/a	n/a	h6	12.0	3.0	LH	25.0	65.0	30.0	60.0	L	left	0.217300000012	4161.0
n/a	n/a	h6	12.0	4.0	LH	34.0	60.0	30.0	60.0	X	right	0.367	4221.0
n/a	n/a	h6	12.0	5.0	LH	33.0	53.0	30.0	60.0	X	right	0.351599999994	4274.0
n/a	n/a	h6	12.0	6.0	LH	33.0	73.0	30.0	60.0	X	right	0.217400000006	4347.0
n/a	n/a	h6	12.0	7.0	LH	18.0	45.0	30.0	60.0	X	right	0.250599999994	4392.0
n/a	n/a	h6	12.0	8.0	LH	37.0	68.0	30.0	60.0	X	right	0.267599999994	4460.0
n/a	n/a	h6	12.0	9.0	LH	33.0	60.0	30.0	60.0	X	right	0.384400000006	4520.0
n/a	n/a	h6	13.0	0.0	LH	58.0	58.0	60.0	64.0	R	right	1.24219999999	4578.0
n/a	n/a	h6	13.0	1.0	LH	59.0	60.0	60.0	64.0	L	left	0.217900000006	4637.0
n/a	n/a	h6	13.0	2.0	LH	61.0	64.0	60.0	64.0	R	right	0.2675	4701.0
n/a	n/a	h6	13.0	3.0	LH	55.0	61.0	60.0	64.0	R	right	0.3345	4762.0
n/a	n/a	h6	13.0	4.0	LH	73.0	70.0	60.0	64.0	X	right	0.3845	4832.0
n/a	n/a	h6	13.0	5.0	LH	69.0	59.0	60.0	64.0	X	right	0.267400000006	4891.0
n/a	n/a	h6	13.0	6.0	LH	58.0	75.0	60.0	64.0	X	right	0.150800000012	4966.0
n/a	n/a	h6	13.0	7.0	LH	61.0	68.0	60.0	64.0	X	right	0.234400000006	5034.0
n/a	n/a	h6	13.0	8.0	LH	58.0	56.0	60.0	64.0	X	right	0.384299999982	5090.0
n/a	n/a	h6	13.0	9.0	LH	62.0	79.0	60.0	64.0	X	right	0.250900000006	5169.0
n/a	n/a	h6	14.0	0.0	LH	44.0	39.0	40.0	48.0	R	right	0.636599999994	5208.0
n/a	n/a	h6	14.0	1.0	LH	50.0	55.0	40.0	48.0	R	right	0.401400000006	5263.0
n/a	n/a	h6	14.0	2.0	LH	53.0	56.0	40.0	48.0	L	left	0.234599999994	5316.0
n/a	n/a	h6	14.0	3.0	LH	49.0	58.0	40.0	48.0	R	right	0.284300000012	5374.0
n/a	n/a	h6	14.0	4.0	LH	40.0	44.0	40.0	48.0	X	right	0.3515	5418.0
n/a	n/a	h6	14.0	5.0	LH	43.0	57.0	40.0	48.0	X	left	0.517900000006	5461.0
n/a	n/a	h6	14.0	6.0	LH	39.0	43.0	40.0	48.0	X	right	0.250899999976	5504.0
n/a	n/a	h6	14.0	7.0	LH	43.0	56.0	40.0	48.0	X	right	0.318100000024	5560.0
n/a	n/a	h6	14.0	8.0	LH	23.0	56.0	40.0	48.0	X	right	0.321600000024	5616.0
n/a	n/a	h6	14.0	9.0	LH	42.0	49.0	40.0	48.0	X	right	0.166900000006	5665.0
n/a	n/a	h1	15.0	0.0	HL	65.0	59.0	68.0	60.0	L	left	0.298900000006	5730.0
n/a	n/a	h1	15.0	1.0	HL	57.0	61.0	68.0	60.0	R	right	0.206799999982	5791.0
n/a	n/a	h1	15.0	2.0	HL	54.0	48.0	68.0	60.0	L	left	0.306	5845.0
n/a	n/a	h1	15.0	3.0	HL	70.0	58.0	68.0	60.0	L	left	0.346200000018	5915.0
n/a	n/a	h1	15.0	4.0	HL	69.0	51.0	68.0	60.0	X	left	0.183799999982	5984.0
n/a	n/a	h6	16.0	0.0	LH	72.0	71.0	60.0	64.0	L	left	0.2455	6056.0
n/a	n/a	h6	16.0	1.0	LH	65.0	87.0	60.0	64.0	L	left	0.276299999982	6121.0
n/a	n/a	h6	16.0	2.0	LH	61.0	70.0	60.0	64.0	R	right	0.304699999988	6191.0
n/a	n/a	h6	16.0	3.0	LH	61.0	76.0	60.0	64.0	R	right	0.952200000018	6267.0
n/a	n/a	h6	16.0	4.0	LH	71.0	66.0	60.0	64.0	X	right	0.568900000006	6333.0
n/a	n/a	h6	16.0	5.0	LH	49.0	59.0	60.0	64.0	X	right	0.451699999988	6392.0
n/a	n/a	h6	16.0	6.0	LH	65.0	50.0	60.0	64.0	X	right	0.365	6442.0
n/a	n/a	h6	16.0	7.0	LH	56.0	76.0	60.0	64.0	X	right	0.283300000012	6518.0
n/a	n/a	h6	16.0	8.0	LH	58.0	59.0	60.0	64.0	X	right	0.284400000006	6577.0
n/a	n/a	h6	16.0	9.0	LH	71.0	64.0	60.0	64.0	X	right	0.204	6641.0
n/a	n/a	h6	17.0	0.0	LH	43.0	58.0	40.0	52.0	L	left	0.234299999982	6684.0
n/a	n/a	h6	17.0	1.0	LH	32.0	39.0	40.0	52.0	R	right	0.258799999982	6723.0
n/a	n/a	h6	17.0	2.0	LH	45.0	53.0	40.0	52.0	L	left	0.218599999994	6768.0
n/a	n/a	h6	17.0	3.0	LH	62.0	60.0	40.0	52.0	R	right	0.275599999994	6828.0
n/a	n/a	h6	17.0	4.0	LH	32.0	54.0	40.0	52.0	X	left	0.232599999994	6860.0
n/a	n/a	h6	17.0	5.0	LH	52.0	51.0	40.0	52.0	X	right	0.556199999988	6911.0
n/a	n/a	h6	17.0	6.0	LH	46.0	54.0	40.0	52.0	X	right	0.191400000006	6965.0
n/a	n/a	h6	17.0	7.0	LH	55.0	58.0	40.0	52.0	X	right	0.134	7023.0
n/a	n/a	h6	17.0	8.0	LH	47.0	61.0	40.0	52.0	X	right	0.188900000006	7084.0
n/a	n/a	h6	17.0	9.0	LH	48.0	45.0	40.0	52.0	X	right	0.218199999988	7129.0
n/a	n/a	h6	18.0	0.0	HL	28.0	15.0	40.0	20.0	L	left	0.473	7157.0
n/a	n/a	h6	18.0	1.0	HL	53.0	16.0	40.0	20.0	L	left	0.251300000012	7210.0
n/a	n/a	h6	18.0	2.0	HL	55.0	28.0	40.0	20.0	L	left	0.235199999988	7265.0
n/a	n/a	h6	18.0	3.0	HL	53.0	20.0	40.0	20.0	R	right	0.168	7285.0
n/a	n/a	h6	18.0	4.0	HL	53.0	3.0	40.0	20.0	X	left	0.552400000006	7338.0
n/a	n/a	h6	18.0	5.0	HL	40.0	15.0	40.0	20.0	X	left	0.369699999988	7378.0
n/a	n/a	h6	18.0	6.0	HL	45.0	4.0	40.0	20.0	X	left	0.4505	7423.0
n/a	n/a	h6	18.0	7.0	HL	41.0	28.0	40.0	20.0	X	left	0.285400000006	7464.0
n/a	n/a	h6	18.0	8.0	HL	43.0	25.0	40.0	20.0	X	left	0.151699999988	7507.0
n/a	n/a	h6	18.0	9.0	HL	47.0	26.0	40.0	20.0	X	left	0.241	7554.0
n/a	n/a	h1	19.0	0.0	LH	66.0	43.0	56.0	60.0	L	left	0.4335	7620.0
n/a	n/a	h1	19.0	1.0	LH	33.0	67.0	56.0	60.0	R	right	0.566099999994	7687.0
n/a	n/a	h1	19.0	2.0	LH	42.0	59.0	56.0	60.0	L	left	0.298699999988	7729.0
n/a	n/a	h1	19.0	3.0	LH	55.0	64.0	56.0	60.0	R	right	0.2215	7793.0
n/a	n/a	h1	19.0	4.0	LH	47.0	58.0	56.0	60.0	X	right	0.404700000018	7851.0
n/a	n/a	h1	20.0	0.0	LH	25.0	23.0	32.0	40.0	L	left	0.269900000006	7876.0
n/a	n/a	h1	20.0	1.0	LH	29.0	57.0	32.0	40.0	L	left	0.403300000012	7905.0
n/a	n/a	h1	20.0	2.0	LH	44.0	38.0	32.0	40.0	R	right	0.202	7943.0
n/a	n/a	h1	20.0	3.0	LH	36.0	31.0	32.0	40.0	L	left	0.300599999994	7979.0
n/a	n/a	h1	20.0	4.0	LH	39.0	48.0	32.0	40.0	X	right	0.2895	8027.0
n/a	n/a	h6	21.0	0.0	HL	43.0	35.0	40.0	28.0	R	right	0.267800000012	8062.0
n/a	n/a	h6	21.0	1.0	HL	31.0	21.0	40.0	28.0	R	right	0.240799999982	8083.0
n/a	n/a	h6	21.0	2.0	HL	40.0	28.0	40.0	28.0	R	right	0.267600000024	8111.0
n/a	n/a	h6	21.0	3.0	HL	36.0	23.0	40.0	28.0	L	left	0.335100000024	8147.0
n/a	n/a	h6	21.0	4.0	HL	40.0	27.0	40.0	28.0	X	left	1.51790000001	8187.0
n/a	n/a	h6	21.0	5.0	HL	46.0	20.0	40.0	28.0	X	left	0.317	8233.0
n/a	n/a	h6	21.0	6.0	HL	50.0	21.0	40.0	28.0	X	left	0.3845	8283.0
n/a	n/a	h6	21.0	7.0	HL	41.0	37.0	40.0	28.0	X	left	0.418300000012	8324.0
n/a	n/a	h6	21.0	8.0	HL	44.0	19.0	40.0	28.0	X	left	0.3195	8368.0
n/a	n/a	h6	21.0	9.0	HL	37.0	25.0	40.0	28.0	X	left	0.134300000012	8405.0
n/a	n/a	h1	22.0	0.0	LH	32.0	76.0	40.0	60.0	L	left	0.255099999994	8437.0
n/a	n/a	h1	22.0	1.0	LH	37.0	65.0	40.0	60.0	R	right	0.234800000012	8502.0
n/a	n/a	h1	22.0	2.0	LH	46.0	68.0	40.0	60.0	L	left	0.218	8548.0
n/a	n/a	h1	22.0	3.0	LH	37.0	69.0	40.0	60.0	R	right	0.100900000006	8617.0
n/a	n/a	h1	22.0	4.0	LH	40.0	53.0	40.0	60.0	X	right	0.239600000024	8670.0
n/a	n/a	h6	23.0	0.0	HL	49.0	36.0	60.0	40.0	L	left	0.368099999994	8719.0
n/a	n/a	h6	23.0	1.0	HL	68.0	43.0	60.0	40.0	R	right	0.317699999988	8762.0
n/a	n/a	h6	23.0	2.0	HL	55.0	40.0	60.0	40.0	L	left	0.284099999994	8817.0
n/a	n/a	h6	23.0	3.0	HL	67.0	41.0	60.0	40.0	R	right	0.501300000012	8858.0
n/a	n/a	h6	23.0	4.0	HL	49.0	34.0	60.0	40.0	X	left	0.234300000012	8907.0
n/a	n/a	h6	23.0	5.0	HL	57.0	35.0	60.0	40.0	X	left	0.132699999988	8964.0
n/a	n/a	h6	23.0	6.0	HL	55.0	50.0	60.0	40.0	X	left	0.219900000006	9019.0
n/a	n/a	h6	23.0	7.0	HL	54.0	28.0	60.0	40.0	X	left	0.084	9073.0
n/a	n/a	h6	23.0	8.0	HL	66.0	35.0	60.0	40.0	X	left	0.0823000000119	9139.0
n/a	n/a	h6	23.0	9.0	HL	54.0	40.0	60.0	40.0	X	left	0.103400000006	9193.0
n/a	n/a	h6	24.0	0.0	LH	40.0	38.0	40.0	48.0	L	left	0.234100000024	9233.0
n/a	n/a	h6	24.0	1.0	LH	37.0	44.0	40.0	48.0	L	left	0.305	9270.0
n/a	n/a	h6	24.0	2.0	LH	60.0	44.0	40.0	48.0	R	right	0.200299999982	9314.0
n/a	n/a	h6	24.0	3.0	LH	42.0	52.0	40.0	48.0	R	right	0.391800000012	9366.0
n/a	n/a	h6	24.0	4.0	LH	52.0	55.0	40.0	48.0	X	right	0.568599999994	9421.0
n/a	n/a	h6	24.0	5.0	LH	46.0	51.0	40.0	48.0	X	right	0.151199999988	9472.0
n/a	n/a	h6	24.0	6.0	LH	50.0	51.0	40.0	48.0	X	right	0.103700000018	9523.0
n/a	n/a	h6	24.0	7.0	LH	47.0	34.0	40.0	48.0	X	right	0.317	9557.0
n/a	n/a	h6	24.0	8.0	LH	30.0	49.0	40.0	48.0	X	right	0.1695	9606.0
n/a	n/a	h6	24.0	9.0	LH	29.0	53.0	40.0	48.0	X	right	0.340099999994	9659.0
n/a	n/a	h6	25.0	0.0	LH	25.0	48.0	20.0	40.0	L	left	0.238800000012	9684.0
n/a	n/a	h6	25.0	1.0	LH	20.0	48.0	20.0	40.0	R	right	0.218800000012	9732.0
n/a	n/a	h6	25.0	2.0	LH	8.0	28.0	20.0	40.0	R	right	0.285	9760.0
n/a	n/a	h6	25.0	3.0	LH	22.0	33.0	20.0	40.0	L	left	0.187	9782.0
n/a	n/a	h6	25.0	4.0	LH	29.0	28.0	20.0	40.0	X	right	0.536300000012	9810.0
n/a	n/a	h6	25.0	5.0	LH	16.0	39.0	20.0	40.0	X	right	0.256400000006	9849.0
n/a	n/a	h6	25.0	6.0	LH	41.0	51.0	20.0	40.0	X	right	0.136800000012	9900.0
n/a	n/a	h6	25.0	7.0	LH	22.0	35.0	20.0	40.0	X	right	0.0672999999821	9935.0
n/a	n/a	h6	25.0	8.0	LH	30.0	50.0	20.0	40.0	X	right	0.109400000006	9985.0
n/a	n/a	h6	25.0	9.0	LH	14.0	34.0	20.0	40.0	X	right	0.101	10019.0
n/a	n/a	h6	26.0	0.0	LH	69.0	60.0	56.0	60.0	R	right	0.299699999988	10079.0
n/a	n/a	h6	26.0	1.0	LH	55.0	53.0	56.0	60.0	L	left	0.190900000006	10134.0
n/a	n/a	h6	26.0	2.0	LH	57.0	59.0	56.0	60.0	L	left	0.268199999988	10191.0
n/a	n/a	h6	26.0	3.0	LH	62.0	46.0	56.0	60.0	L	left	0.368	10253.0
n/a	n/a	h6	26.0	4.0	LH	50.0	63.0	56.0	60.0	X	right	1.273	10316.0
n/a	n/a	h6	26.0	5.0	LH	65.0	68.0	56.0	60.0	X	right	0.826100000024	10384.0
n/a	n/a	h6	26.0	6.0	LH	59.0	64.0	56.0	60.0	X	right	0.301400000006	10448.0
n/a	n/a	h6	26.0	7.0	LH	46.0	52.0	56.0	60.0	X	right	0.1175	10500.0
n/a	n/a	h6	26.0	8.0	LH	68.0	58.0	56.0	60.0	X	right	0.106	10558.0
n/a	n/a	h6	26.0	9.0	LH	62.0	62.0	56.0	60.0	X	right	0.121200000018	10620.0
n/a	n/a	h1	27.0	0.0	HL	57.0	35.0	60.0	40.0	L	left	0.421099999994	10677.0
n/a	n/a	h1	27.0	1.0	HL	63.0	50.0	60.0	40.0	R	right	0.261599999994	10727.0
n/a	n/a	h1	27.0	2.0	HL	57.0	53.0	60.0	40.0	L	left	0.184900000006	10784.0
n/a	n/a	h1	27.0	3.0	HL	54.0	48.0	60.0	40.0	R	right	0.2945	10832.0
n/a	n/a	h1	27.0	4.0	HL	62.0	36.0	60.0	40.0	X	left	0.121300000012	10894.0
n/a	n/a	h6	28.0	0.0	HL	43.0	26.0	40.0	28.0	R	right	0.4345	10920.0
n/a	n/a	h6	28.0	1.0	HL	31.0	21.0	40.0	28.0	R	right	0.306099999994	10941.0
n/a	n/a	h6	28.0	2.0	HL	36.0	25.0	40.0	28.0	R	right	0.284599999994	10966.0
n/a	n/a	h6	28.0	3.0	HL	40.0	23.0	40.0	28.0	L	left	0.252400000006	11006.0
n/a	n/a	h6	28.0	4.0	HL	40.0	18.0	40.0	28.0	X	right	0.234599999994	11024.0
n/a	n/a	h6	28.0	5.0	HL	42.0	29.0	40.0	28.0	X	left	0.299099999994	11066.0
n/a	n/a	h6	28.0	6.0	HL	38.0	28.0	40.0	28.0	X	left	0.101	11104.0
n/a	n/a	h6	28.0	7.0	HL	43.0	28.0	40.0	28.0	X	left	0.101600000024	11147.0
n/a	n/a	h6	28.0	8.0	HL	43.0	29.0	40.0	28.0	X	left	0.157400000006	11190.0
n/a	n/a	h6	28.0	9.0	HL	45.0	35.0	40.0	28.0	X	left	0.216800000012	11235.0
n/a	n/a	h6	29.0	0.0	LH	22.0	58.0	40.0	52.0	L	left	0.334600000024	11257.0
n/a	n/a	h6	29.0	1.0	LH	32.0	51.0	40.0	52.0	R	right	0.208800000012	11308.0
n/a	n/a	h6	29.0	2.0	LH	62.0	53.0	40.0	52.0	L	left	0.167199999988	11370.0
n/a	n/a	h6	29.0	3.0	LH	52.0	54.0	40.0	52.0	R	right	0.151400000006	11424.0
n/a	n/a	h6	29.0	4.0	LH	37.0	56.0	40.0	52.0	X	left	0.2085	11461.0
n/a	n/a	h6	29.0	5.0	LH	45.0	43.0	40.0	52.0	X	right	0.151699999988	11504.0
n/a	n/a	h6	29.0	6.0	LH	55.0	51.0	40.0	52.0	X	right	0.1995	11555.0
n/a	n/a	h6	29.0	7.0	LH	45.0	42.0	40.0	52.0	X	right	0.133900000006	11597.0
n/a	n/a	h6	29.0	8.0	LH	49.0	39.0	40.0	52.0	X	right	0.0937000000179	11636.0
n/a	n/a	h6	29.0	9.0	LH	34.0	68.0	40.0	52.0	X	right	0.284299999982	11704.0
n/a	n/a	h1	30.0	0.0	LH	43.0	75.0	40.0	70.0	R	right	0.403199999988	11779.0
n/a	n/a	h1	30.0	1.0	LH	30.0	80.0	40.0	70.0	R	right	0.236099999994	11859.0
n/a	n/a	h1	30.0	2.0	LH	40.0	70.0	40.0	70.0	R	right	0.203900000006	11929.0
n/a	n/a	h1	30.0	3.0	LH	22.0	65.0	40.0	70.0	L	left	0.512299999982	11951.0
n/a	n/a	h1	30.0	4.0	LH	40.0	78.0	40.0	70.0	X	right	0.218399999976	12029.0
n/a	n/a	h1	31.0	0.0	HL	60.0	66.0	68.0	60.0	R	right	0.379199999988	12095.0
n/a	n/a	h1	31.0	1.0	HL	62.0	54.0	68.0	60.0	L	left	0.1865	12157.0
n/a	n/a	h1	31.0	2.0	HL	76.0	51.0	68.0	60.0	L	left	0.416699999988	12233.0
n/a	n/a	h1	31.0	3.0	HL	57.0	60.0	68.0	60.0	R	right	0.286799999982	12293.0
n/a	n/a	h1	31.0	4.0	HL	64.0	44.0	68.0	60.0	X	left	0.1855	12357.0
n/a	n/a	h1	32.0	0.0	HL	30.0	7.0	40.0	10.0	R	right	0.384599999994	12364.0
n/a	n/a	h1	32.0	1.0	HL	39.0	11.0	40.0	10.0	L	left	0.335700000018	12403.0
n/a	n/a	h1	32.0	2.0	HL	45.0	1.0	40.0	10.0	R	right	0.2335	12404.0
n/a	n/a	h1	32.0	3.0	HL	46.0	17.0	40.0	10.0	L	left	0.200599999994	12450.0
n/a	n/a	h1	32.0	4.0	HL	34.0	9.0	40.0	10.0	X	left	0.296	12484.0
n/a	n/a	h6	33.0	0.0	HL	49.0	41.0	60.0	40.0	L	left	0.284400000006	12533.0
n/a	n/a	h6	33.0	1.0	HL	68.0	43.0	60.0	40.0	R	right	0.203099999994	12576.0
n/a	n/a	h6	33.0	2.0	HL	67.0	40.0	60.0	40.0	L	left	0.250799999982	12643.0
n/a	n/a	h6	33.0	3.0	HL	55.0	36.0	60.0	40.0	R	right	0.351300000012	12679.0
n/a	n/a	h6	33.0	4.0	HL	59.0	49.0	60.0	40.0	X	left	0.686200000018	12738.0
n/a	n/a	h6	33.0	5.0	HL	60.0	28.0	60.0	40.0	X	left	0.282	12798.0
n/a	n/a	h6	33.0	6.0	HL	50.0	48.0	60.0	40.0	X	left	0.284099999994	12848.0
n/a	n/a	h6	33.0	7.0	HL	64.0	50.0	60.0	40.0	X	left	0.272099999994	12912.0
n/a	n/a	h6	33.0	8.0	HL	57.0	31.0	60.0	40.0	X	left	0.250700000018	12969.0
n/a	n/a	h6	33.0	9.0	HL	54.0	45.0	60.0	40.0	X	left	0.391400000006	13023.0
n/a	n/a	h6	34.0	0.0	LH	62.0	77.0	60.0	80.0	L	left	0.251700000018	13085.0
n/a	n/a	h6	34.0	1.0	LH	60.0	67.0	60.0	80.0	L	left	0.301	13145.0
n/a	n/a	h6	34.0	2.0	LH	58.0	68.0	60.0	80.0	L	left	0.235199999988	13203.0
n/a	n/a	h6	34.0	3.0	LH	57.0	78.0	60.0	80.0	R	right	0.2715	13281.0
n/a	n/a	h6	34.0	4.0	LH	66.0	90.0	60.0	80.0	X	right	0.502399999976	13371.0
n/a	n/a	h6	34.0	5.0	LH	81.0	75.0	60.0	80.0	X	right	0.250299999982	13446.0
n/a	n/a	h6	34.0	6.0	LH	67.0	84.0	60.0	80.0	X	right	0.233900000006	13530.0
n/a	n/a	h6	34.0	7.0	LH	53.0	68.0	60.0	80.0	X	right	0.215199999988	13598.0
n/a	n/a	h6	34.0	8.0	LH	72.0	88.0	60.0	80.0	X	right	0.123899999976	13686.0
n/a	n/a	h6	34.0	9.0	LH	58.0	63.0	60.0	80.0	X	right	0.116299999982	13749.0
n/a	n/a	h6	35.0	0.0	LH	27.0	48.0	30.0	60.0	R	right	0.4345	13797.0
n/a	n/a	h6	35.0	1.0	LH	40.0	61.0	30.0	60.0	R	right	0.251400000006	13858.0
n/a	n/a	h6	35.0	2.0	LH	20.0	58.0	30.0	60.0	L	left	0.267199999988	13878.0
n/a	n/a	h6	35.0	3.0	LH	38.0	65.0	30.0	60.0	L	left	0.741399999976	13916.0
n/a	n/a	h6	35.0	4.0	LH	30.0	62.0	30.0	60.0	X	right	0.251100000024	13978.0
n/a	n/a	h6	35.0	5.0	LH	25.0	58.0	30.0	60.0	X	right	0.0728000000119	14036.0
n/a	n/a	h6	35.0	6.0	LH	32.0	69.0	30.0	60.0	X	right	0.0341999999881	14105.0
n/a	n/a	h6	35.0	7.0	LH	38.0	65.0	30.0	60.0	X	right	0.481599999994	14170.0
n/a	n/a	h6	35.0	8.0	LH	40.0	80.0	30.0	60.0	X	right	0.214800000012	14250.0
n/a	n/a	h6	35.0	9.0	LH	18.0	68.0	30.0	60.0	X	right	0.168099999994	14318.0
n/a	n/a	h1	36.0	0.0	HL	70.0	37.0	60.0	40.0	R	right	0.296200000018	14355.0
n/a	n/a	h1	36.0	1.0	HL	68.0	36.0	60.0	40.0	R	right	0.357099999994	14391.0
n/a	n/a	h1	36.0	2.0	HL	46.0	26.0	60.0	40.0	R	right	0.317099999994	14417.0
n/a	n/a	h1	36.0	3.0	HL	54.0	32.0	60.0	40.0	L	left	0.228599999994	14471.0
n/a	n/a	h1	36.0	4.0	HL	54.0	46.0	60.0	40.0	X	left	0.456599999994	14525.0
n/a	n/a	h1	37.0	0.0	LH	51.0	75.0	48.0	60.0	R	right	0.233599999994	14600.0
n/a	n/a	h1	37.0	1.0	LH	58.0	57.0	48.0	60.0	R	right	0.284599999994	14657.0
n/a	n/a	h1	37.0	2.0	LH	46.0	58.0	48.0	60.0	L	left	0.236300000012	14703.0
n/a	n/a	h1	37.0	3.0	LH	40.0	48.0	48.0	60.0	R	right	0.2845	14751.0
n/a	n/a	h1	37.0	4.0	LH	42.0	54.0	48.0	60.0	X	right	0.736099999994	14805.0
n/a	n/a	h6	38.0	0.0	HL	77.0	45.0	70.0	40.0	L	left	0.287	14882.0
n/a	n/a	h6	38.0	1.0	HL	68.0	29.0	70.0	40.0	L	left	0.3265	14950.0
n/a	n/a	h6	38.0	2.0	HL	71.0	27.0	70.0	40.0	L	left	0.321300000012	15021.0
n/a	n/a	h6	38.0	3.0	HL	82.0	35.0	70.0	40.0	R	right	0.251199999988	15056.0
n/a	n/a	h6	38.0	4.0	HL	64.0	43.0	70.0	40.0	X	left	0.448399999976	15120.0
n/a	n/a	h6	38.0	5.0	HL	56.0	43.0	70.0	40.0	X	left	0.123	15176.0
n/a	n/a	h6	38.0	6.0	HL	73.0	47.0	70.0	40.0	X	left	0.1195	15249.0
n/a	n/a	h6	38.0	7.0	HL	80.0	40.0	70.0	40.0	X	left	0.310699999988	15329.0
n/a	n/a	h6	38.0	8.0	HL	71.0	44.0	70.0	40.0	X	left	0.138299999982	15400.0
n/a	n/a	h6	38.0	9.0	HL	83.0	48.0	70.0	40.0	X	left	0.217599999994	15483.0
n/a	n/a	h1	39.0	0.0	HL	39.0	32.0	44.0	40.0	L	left	0.233800000012	15522.0
n/a	n/a	h1	39.0	1.0	HL	36.0	52.0	44.0	40.0	L	left	0.275099999994	15558.0
n/a	n/a	h1	39.0	2.0	HL	39.0	47.0	44.0	40.0	L	left	0.225099999994	15597.0
n/a	n/a	h1	39.0	3.0	HL	49.0	32.0	44.0	40.0	R	right	0.211799999982	15629.0
n/a	n/a	h1	39.0	4.0	HL	55.0	46.0	44.0	40.0	X	left	0.5675	15684.0
n/a	n/a	h6	40.0	0.0	HL	36.0	38.0	40.0	28.0	L	left	0.2165	15720.0
n/a	n/a	h6	40.0	1.0	HL	37.0	40.0	40.0	28.0	L	left	0.272300000012	15757.0
n/a	n/a	h6	40.0	2.0	HL	33.0	23.0	40.0	28.0	R	right	0.161200000018	15780.0
n/a	n/a	h6	40.0	3.0	HL	44.0	27.0	40.0	28.0	R	right	0.2735	15807.0
n/a	n/a	h6	40.0	4.0	HL	22.0	36.0	40.0	28.0	X	left	0.901900000006	15829.0
n/a	n/a	h6	40.0	5.0	HL	47.0	30.0	40.0	28.0	X	left	0.1845	15876.0
n/a	n/a	h6	40.0	6.0	HL	31.0	16.0	40.0	28.0	X	left	0.351200000018	15907.0
n/a	n/a	h6	40.0	7.0	HL	47.0	34.0	40.0	28.0	X	left	0.135200000018	15954.0
n/a	n/a	h6	40.0	8.0	HL	39.0	20.0	40.0	28.0	X	left	0.200200000018	15993.0
n/a	n/a	h6	40.0	9.0	HL	37.0	36.0	40.0	28.0	X	left	0.0177999999821	16030.0
n/a	n/a	h1	41.0	0.0	LH	65.0	58.0	52.0	60.0	L	left	0.502	16095.0
n/a	n/a	h1	41.0	1.0	LH	49.0	64.0	52.0	60.0	L	left	0.336599999994	16144.0
n/a	n/a	h1	41.0	2.0	LH	52.0	73.0	52.0	60.0	R	right	0.188299999982	16217.0
n/a	n/a	h1	41.0	3.0	LH	52.0	64.0	52.0	60.0	R	right	0.304	16281.0
n/a	n/a	h1	41.0	4.0	LH	52.0	62.0	52.0	60.0	X	right	0.218700000018	16343.0
n/a	n/a	h1	42.0	0.0	LH	22.0	75.0	40.0	70.0	R	right	0.353800000012	16418.0
n/a	n/a	h1	42.0	1.0	LH	30.0	65.0	40.0	70.0	R	right	0.3245	16483.0
n/a	n/a	h1	42.0	2.0	LH	40.0	70.0	40.0	70.0	R	right	0.409099999994	16553.0
n/a	n/a	h1	42.0	3.0	LH	43.0	80.0	40.0	70.0	L	left	0.176	16596.0
n/a	n/a	h1	42.0	4.0	LH	44.0	86.0	40.0	70.0	X	right	0.244300000012	16682.0
n/a	n/a	h1	43.0	0.0	LH	32.0	50.0	36.0	40.0	L	left	1.437	16714.0
n/a	n/a	h1	43.0	1.0	LH	39.0	44.0	36.0	40.0	R	right	0.477900000006	16758.0
n/a	n/a	h1	43.0	2.0	LH	27.0	48.0	36.0	40.0	L	left	0.386400000006	16785.0
n/a	n/a	h1	43.0	3.0	LH	44.0	31.0	36.0	40.0	L	left	0.367699999988	16829.0
n/a	n/a	h1	43.0	4.0	LH	42.0	45.0	36.0	40.0	X	right	0.641699999988	16874.0
n/a	n/a	h1	44.0	0.0	HL	58.0	57.0	64.0	60.0	L	left	0.380900000006	16932.0
n/a	n/a	h1	44.0	1.0	HL	68.0	62.0	64.0	60.0	R	right	0.268200000018	16994.0
n/a	n/a	h1	44.0	2.0	HL	61.0	75.0	64.0	60.0	L	left	0.300800000012	17055.0
n/a	n/a	h1	44.0	3.0	HL	44.0	57.0	64.0	60.0	R	right	0.352099999994	17112.0
n/a	n/a	h1	44.0	4.0	HL	65.0	64.0	64.0	60.0	X	right	0.568800000012	17176.0
n/a	n/a	h1	45.0	0.0	HL	60.0	55.0	72.0	60.0	L	left	0.334699999988	17236.0
n/a	n/a	h1	45.0	1.0	HL	69.0	48.0	72.0	60.0	R	right	0.237099999994	17284.0
n/a	n/a	h1	45.0	2.0	HL	62.0	75.0	72.0	60.0	L	left	0.309099999994	17346.0
n/a	n/a	h1	45.0	3.0	HL	69.0	50.0	72.0	60.0	R	right	0.457099999994	17396.0
n/a	n/a	h1	45.0	4.0	HL	75.0	58.0	72.0	60.0	X	left	0.286199999988	17471.0
n/a	n/a	h6	46.0	0.0	LH	72.0	71.0	60.0	64.0	L	left	0.809400000006	17543.0
n/a	n/a	h6	46.0	1.0	LH	61.0	87.0	60.0	64.0	L	left	0.601300000012	17604.0
n/a	n/a	h6	46.0	2.0	LH	49.0	70.0	60.0	64.0	R	right	0.348599999994	17674.0
n/a	n/a	h6	46.0	3.0	LH	61.0	65.0	60.0	64.0	R	right	0.284	17739.0
n/a	n/a	h6	46.0	4.0	LH	70.0	72.0	60.0	64.0	X	right	0.471599999994	17811.0
n/a	n/a	h6	46.0	5.0	LH	69.0	65.0	60.0	64.0	X	right	0.318400000006	17876.0
n/a	n/a	h6	46.0	6.0	LH	60.0	52.0	60.0	64.0	X	right	0.173899999976	17928.0
n/a	n/a	h6	46.0	7.0	LH	63.0	61.0	60.0	64.0	X	right	0.0347999999821	17989.0
n/a	n/a	h6	46.0	8.0	LH	58.0	76.0	60.0	64.0	X	right	0.0835	18065.0
n/a	n/a	h6	46.0	9.0	LH	54.0	59.0	60.0	64.0	X	right	0.0505999999941	18124.0
n/a	n/a	h1	47.0	0.0	HL	67.0	59.0	68.0	60.0	L	left	0.217300000012	18191.0
n/a	n/a	h1	47.0	1.0	HL	54.0	58.0	68.0	60.0	R	right	0.197899999976	18249.0
n/a	n/a	h1	47.0	2.0	HL	57.0	48.0	68.0	60.0	L	left	0.295	18306.0
n/a	n/a	h1	47.0	3.0	HL	65.0	61.0	68.0	60.0	L	left	0.400900000006	18371.0
n/a	n/a	h1	47.0	4.0	HL	70.0	45.0	68.0	60.0	X	left	0.451100000024	18441.0
n/a	n/a	h1	48.0	0.0	HL	67.0	16.0	60.0	30.0	R	right	0.253	18457.0
n/a	n/a	h1	48.0	1.0	HL	67.0	38.0	60.0	30.0	R	right	0.284099999994	18495.0
n/a	n/a	h1	48.0	2.0	HL	83.0	27.0	60.0	30.0	R	right	0.256099999994	18522.0
n/a	n/a	h1	48.0	3.0	HL	55.0	34.0	60.0	30.0	L	left	0.284599999994	18577.0
n/a	n/a	h1	48.0	4.0	HL	70.0	22.0	60.0	30.0	X	right	0.2525	18599.0
n/a	n/a	h6	49.0	0.0	HL	72.0	45.0	70.0	40.0	L	left	0.317799999982	18671.0
n/a	n/a	h6	49.0	1.0	HL	68.0	29.0	70.0	40.0	L	left	0.401	18739.0
n/a	n/a	h6	49.0	2.0	HL	64.0	27.0	70.0	40.0	L	left	0.3345	18803.0
n/a	n/a	h6	49.0	3.0	HL	82.0	31.0	70.0	40.0	R	right	0.233800000012	18834.0
n/a	n/a	h6	49.0	4.0	HL	77.0	23.0	70.0	40.0	X	left	0.6395	18911.0
n/a	n/a	h6	49.0	5.0	HL	74.0	35.0	70.0	40.0	X	left	0.150900000006	18985.0
n/a	n/a	h6	49.0	6.0	HL	86.0	53.0	70.0	40.0	X	left	0.1395	19071.0
n/a	n/a	h6	49.0	7.0	HL	68.0	32.0	70.0	40.0	X	left	0.234300000012	19139.0
n/a	n/a	h6	49.0	8.0	HL	71.0	27.0	70.0	40.0	X	left	0.100299999982	19210.0
n/a	n/a	h6	49.0	9.0	HL	67.0	43.0	70.0	40.0	X	left	0.139799999982	19277.0
n/a	n/a	h6	50.0	0.0	HL	89.0	65.0	90.0	60.0	L	left	0.354099999994	19366.0
n/a	n/a	h6	50.0	1.0	HL	88.0	57.0	90.0	60.0	L	left	0.268700000018	19454.0
n/a	n/a	h6	50.0	2.0	HL	84.0	72.0	90.0	60.0	R	right	0.334800000012	19526.0
n/a	n/a	h6	50.0	3.0	HL	76.0	67.0	90.0	60.0	R	right	0.536699999988	19593.0
n/a	n/a	h6	50.0	4.0	HL	96.0	66.0	90.0	60.0	X	left	0.167599999994	19689.0
n/a	n/a	h6	50.0	5.0	HL	99.0	61.0	90.0	60.0	X	left	0.217699999988	19788.0
n/a	n/a	h6	50.0	6.0	HL	84.0	67.0	90.0	60.0	X	left	0.116699999988	19872.0
n/a	n/a	h6	50.0	7.0	HL	91.0	70.0	90.0	60.0	X	left	0.200900000006	19963.0
n/a	n/a	h6	50.0	8.0	HL	85.0	51.0	90.0	60.0	X	left	0.034	20048.0
n/a	n/a	h6	50.0	9.0	HL	83.0	59.0	90.0	60.0	X	left	0.0722999999821	20131.0
n/a	n/a	h6	51.0	0.0	HL	60.0	51.0	60.0	52.0	R	right	0.433699999988	20182.0
n/a	n/a	h6	51.0	1.0	HL	55.0	43.0	60.0	52.0	L	left	0.242899999976	20237.0
n/a	n/a	h6	51.0	2.0	HL	59.0	62.0	60.0	52.0	L	left	0.268	20296.0
n/a	n/a	h6	51.0	3.0	HL	53.0	52.0	60.0	52.0	R	right	0.184699999988	20348.0
n/a	n/a	h6	51.0	4.0	HL	52.0	57.0	60.0	52.0	X	left	0.291800000012	20400.0
n/a	n/a	h6	51.0	5.0	HL	78.0	49.0	60.0	52.0	X	left	0.167400000006	20478.0
n/a	n/a	h6	51.0	6.0	HL	44.0	61.0	60.0	52.0	X	left	0.118	20522.0
n/a	n/a	h6	51.0	7.0	HL	65.0	44.0	60.0	52.0	X	left	0.070900000006	20587.0
n/a	n/a	h6	51.0	8.0	HL	60.0	42.0	60.0	52.0	X	left	0.0715	20647.0
n/a	n/a	h6	51.0	9.0	HL	59.0	67.0	60.0	52.0	X	left	0.0855	20706.0
n/a	n/a	h6	52.0	0.0	LH	40.0	38.0	40.0	48.0	L	left	0.206699999988	20746.0
n/a	n/a	h6	52.0	1.0	LH	42.0	44.0	40.0	48.0	L	left	0.267400000006	20788.0
n/a	n/a	h6	52.0	2.0	LH	60.0	47.0	40.0	48.0	R	right	0.200699999988	20835.0
n/a	n/a	h6	52.0	3.0	LH	37.0	52.0	40.0	48.0	R	right	0.173800000012	20887.0
n/a	n/a	h6	52.0	4.0	LH	31.0	59.0	40.0	48.0	X	right	0.568099999994	20946.0
n/a	n/a	h6	52.0	5.0	LH	39.0	40.0	40.0	48.0	X	right	0.0665	20986.0
n/a	n/a	h6	52.0	6.0	LH	43.0	44.0	40.0	48.0	X	right	0.106	21030.0
n/a	n/a	h6	52.0	7.0	LH	50.0	47.0	40.0	48.0	X	right	0.0846000000238	21077.0
n/a	n/a	h6	52.0	8.0	LH	55.0	41.0	40.0	48.0	X	right	0.789699999988	21118.0
n/a	n/a	h6	52.0	9.0	LH	34.0	45.0	40.0	48.0	X	right	0.165199999988	21163.0
n/a	n/a	h6	53.0	0.0	LH	19.0	45.0	30.0	60.0	R	right	0.917199999988	21208.0
n/a	n/a	h6	53.0	1.0	LH	39.0	62.0	30.0	60.0	L	left	0.253699999988	21247.0
n/a	n/a	h6	53.0	2.0	LH	24.0	65.0	30.0	60.0	L	left	0.333400000006	21271.0
n/a	n/a	h6	53.0	3.0	LH	42.0	55.0	30.0	60.0	L	left	0.271099999994	21313.0
n/a	n/a	h6	53.0	4.0	LH	37.0	72.0	30.0	60.0	X	right	0.156599999994	21385.0
n/a	n/a	h6	53.0	5.0	LH	31.0	61.0	30.0	60.0	X	right	0.235300000012	21446.0
n/a	n/a	h6	53.0	6.0	LH	33.0	50.0	30.0	60.0	X	right	0.0578999999762	21496.0
n/a	n/a	h6	53.0	7.0	LH	29.0	88.0	30.0	60.0	X	right	0.1045	21584.0
n/a	n/a	h6	53.0	8.0	LH	11.0	62.0	30.0	60.0	X	right	0.070400000006	21646.0
n/a	n/a	h6	53.0	9.0	LH	44.0	70.0	30.0	60.0	X	right	0.109099999994	21716.0
n/a	n/a	h6	54.0	0.0	HL	41.0	38.0	40.0	28.0	L	left	0.268699999988	21757.0
n/a	n/a	h6	54.0	1.0	HL	37.0	27.0	40.0	28.0	L	left	0.242600000024	21794.0
n/a	n/a	h6	54.0	2.0	HL	33.0	23.0	40.0	28.0	R	right	0.235100000024	21817.0
n/a	n/a	h6	54.0	3.0	HL	44.0	40.0	40.0	28.0	R	right	0.218	21857.0
n/a	n/a	h6	54.0	4.0	HL	27.0	30.0	40.0	28.0	X	left	0.134599999994	21884.0
n/a	n/a	h6	54.0	5.0	HL	36.0	28.0	40.0	28.0	X	left	0.100599999994	21920.0
n/a	n/a	h6	54.0	6.0	HL	45.0	35.0	40.0	28.0	X	left	0.117700000018	21965.0
n/a	n/a	h6	54.0	7.0	HL	44.0	28.0	40.0	28.0	X	left	0.301099999994	22009.0
n/a	n/a	h6	54.0	8.0	HL	42.0	30.0	40.0	28.0	X	left	0.104	22051.0
n/a	n/a	h6	54.0	9.0	HL	45.0	31.0	40.0	28.0	X	left	0.117600000024	22096.0
n/a	n/a	h1	55.0	0.0	LH	40.0	64.0	40.0	52.0	L	left	0.411900000006	22136.0
n/a	n/a	h1	55.0	1.0	LH	34.0	52.0	40.0	52.0	L	left	0.284399999976	22170.0
n/a	n/a	h1	55.0	2.0	LH	40.0	58.0	40.0	52.0	R	right	0.4005	22228.0
n/a	n/a	h1	55.0	3.0	LH	58.0	62.0	40.0	52.0	L	left	0.211699999988	22286.0
n/a	n/a	h1	55.0	4.0	LH	44.0	48.0	40.0	52.0	X	right	0.751299999982	22334.0
n/a	n/a	h6	56.0	0.0	HL	60.0	56.0	60.0	52.0	R	right	0.3265	22390.0
n/a	n/a	h6	56.0	1.0	HL	67.0	49.0	60.0	52.0	L	left	0.217400000006	22457.0
n/a	n/a	h6	56.0	2.0	HL	67.0	51.0	60.0	52.0	R	right	0.216700000018	22508.0
n/a	n/a	h6	56.0	3.0	HL	69.0	59.0	60.0	52.0	R	right	0.418	22567.0
n/a	n/a	h6	56.0	4.0	HL	70.0	78.0	60.0	52.0	X	right	0.498199999988	22645.0
n/a	n/a	h6	56.0	5.0	HL	55.0	45.0	60.0	52.0	X	left	0.133700000018	22700.0
n/a	n/a	h6	56.0	6.0	HL	75.0	51.0	60.0	52.0	X	right	0.465299999982	22751.0
n/a	n/a	h6	56.0	7.0	HL	66.0	67.0	60.0	52.0	X	left	0.9495	22817.0
n/a	n/a	h6	56.0	8.0	HL	61.0	45.0	60.0	52.0	X	left	0.105199999988	22878.0
n/a	n/a	h6	56.0	9.0	HL	60.0	63.0	60.0	52.0	X	left	0.232400000006	22938.0
n/a	n/a	h6	57.0	0.0	HL	39.0	36.0	40.0	36.0	R	right	0.317599999994	22974.0
n/a	n/a	h6	57.0	1.0	HL	31.0	38.0	40.0	36.0	R	right	0.319599999994	23012.0
n/a	n/a	h6	57.0	2.0	HL	46.0	27.0	40.0	36.0	L	left	0.134599999994	23058.0
n/a	n/a	h6	57.0	3.0	HL	35.0	50.0	40.0	36.0	L	left	0.251299999982	23093.0
n/a	n/a	h6	57.0	4.0	HL	46.0	20.0	40.0	36.0	X	left	0.234699999988	23139.0
n/a	n/a	h6	57.0	5.0	HL	45.0	22.0	40.0	36.0	X	left	0.234699999988	23184.0
n/a	n/a	h6	57.0	6.0	HL	31.0	42.0	40.0	36.0	X	left	0.284800000012	23215.0
n/a	n/a	h6	57.0	7.0	HL	40.0	31.0	40.0	36.0	X	left	0.101199999988	23255.0
n/a	n/a	h6	57.0	8.0	HL	49.0	43.0	40.0	36.0	X	left	0.116199999988	23304.0
n/a	n/a	h6	57.0	9.0	HL	26.0	21.0	40.0	36.0	X	left	0.155199999988	23330.0
n/a	n/a	h1	58.0	0.0	HL	75.0	57.0	64.0	60.0	L	left	0.299200000018	23405.0
n/a	n/a	h1	58.0	1.0	HL	68.0	75.0	64.0	60.0	R	right	0.187899999976	23480.0
n/a	n/a	h1	58.0	2.0	HL	61.0	62.0	64.0	60.0	L	left	0.182299999982	23541.0
n/a	n/a	h1	58.0	3.0	HL	44.0	57.0	64.0	60.0	R	right	0.350899999976	23598.0
n/a	n/a	h1	58.0	4.0	HL	58.0	52.0	64.0	60.0	X	left	0.457	23656.0
n/a	n/a	h6	59.0	0.0	LH	19.0	65.0	30.0	60.0	R	right	0.259800000012	23721.0
n/a	n/a	h6	59.0	1.0	LH	39.0	62.0	30.0	60.0	L	left	0.267799999982	23760.0
n/a	n/a	h6	59.0	2.0	LH	24.0	45.0	30.0	60.0	L	left	0.284900000006	23784.0
n/a	n/a	h6	59.0	3.0	LH	25.0	55.0	30.0	60.0	L	left	0.373699999988	23809.0
n/a	n/a	h6	59.0	4.0	LH	40.0	55.0	30.0	60.0	X	right	0.251	23864.0
n/a	n/a	h6	59.0	5.0	LH	23.0	71.0	30.0	60.0	X	right	0.183700000018	23935.0
n/a	n/a	h6	59.0	6.0	LH	42.0	65.0	30.0	60.0	X	right	0.0669000000059	24000.0
n/a	n/a	h6	59.0	7.0	LH	28.0	55.0	30.0	60.0	X	right	0.051900000006	24055.0
n/a	n/a	h6	59.0	8.0	LH	17.0	65.0	30.0	60.0	X	right	0.100800000012	24120.0
n/a	n/a	h6	59.0	9.0	LH	30.0	64.0	30.0	60.0	X	right	0.148599999994	24184.0
n/a	n/a	h6	60.0	0.0	LH	69.0	62.0	56.0	60.0	R	right	0.240700000018	24246.0
n/a	n/a	h6	60.0	1.0	LH	54.0	53.0	56.0	60.0	L	left	0.175099999994	24300.0
n/a	n/a	h6	60.0	2.0	LH	57.0	59.0	56.0	60.0	L	left	0.268099999994	24357.0
n/a	n/a	h6	60.0	3.0	LH	62.0	60.0	56.0	60.0	L	left	0.518099999994	24419.0
n/a	n/a	h6	60.0	4.0	LH	57.0	51.0	56.0	60.0	X	right	0.388300000012	24470.0
n/a	n/a	h6	60.0	5.0	LH	58.0	50.0	56.0	60.0	X	left	0.468600000024	24528.0
n/a	n/a	h6	60.0	6.0	LH	65.0	48.0	56.0	60.0	X	left	0.169200000018	24593.0
n/a	n/a	h6	60.0	7.0	LH	64.0	68.0	56.0	60.0	X	left	0.3005	24657.0
n/a	n/a	h6	60.0	8.0	LH	55.0	54.0	56.0	60.0	X	left	0.201599999994	24712.0
n/a	n/a	h6	60.0	9.0	LH	44.0	46.0	56.0	60.0	X	left	0.201199999988	24756.0
n/a	n/a	h1	61.0	0.0	HL	54.0	35.0	60.0	40.0	L	left	0.267299999982	24810.0
n/a	n/a	h1	61.0	1.0	HL	63.0	42.0	60.0	40.0	R	right	0.216400000006	24852.0
n/a	n/a	h1	61.0	2.0	HL	57.0	53.0	60.0	40.0	L	left	0.235700000018	24909.0
n/a	n/a	h1	61.0	3.0	HL	57.0	48.0	60.0	40.0	R	right	0.156899999976	24957.0
n/a	n/a	h1	61.0	4.0	HL	58.0	50.0	60.0	40.0	X	left	0.1015	25015.0
n/a	n/a	h6	62.0	0.0	HL	60.0	56.0	60.0	52.0	R	right	0.283799999982	25071.0
n/a	n/a	h6	62.0	1.0	HL	62.0	49.0	60.0	52.0	L	left	0.184699999988	25133.0
n/a	n/a	h6	62.0	2.0	HL	67.0	51.0	60.0	52.0	R	right	0.267700000018	25184.0
n/a	n/a	h6	62.0	3.0	HL	69.0	53.0	60.0	52.0	R	right	0.434300000012	25237.0
n/a	n/a	h6	62.0	4.0	HL	57.0	49.0	60.0	52.0	X	left	0.288	25294.0
n/a	n/a	h6	62.0	5.0	HL	62.0	39.0	60.0	52.0	X	left	0.256900000006	25356.0
n/a	n/a	h6	62.0	6.0	HL	42.0	47.0	60.0	52.0	X	left	0.303299999982	25398.0
n/a	n/a	h6	62.0	7.0	HL	69.0	36.0	60.0	52.0	X	left	0.235199999988	25467.0
n/a	n/a	h6	62.0	8.0	HL	67.0	45.0	60.0	52.0	X	left	0.200900000006	25534.0
n/a	n/a	h6	62.0	9.0	HL	58.0	56.0	60.0	52.0	X	left	0.2175	25592.0
n/a	n/a	h6	63.0	0.0	LH	65.0	77.0	60.0	80.0	L	left	0.2835	25657.0
n/a	n/a	h6	63.0	1.0	LH	60.0	78.0	60.0	80.0	L	left	0.290099999994	25717.0
n/a	n/a	h6	63.0	2.0	LH	58.0	68.0	60.0	80.0	L	left	0.300800000012	25775.0
n/a	n/a	h6	63.0	3.0	LH	57.0	81.0	60.0	80.0	R	right	0.200900000006	25856.0
n/a	n/a	h6	63.0	4.0	LH	64.0	82.0	60.0	80.0	X	right	0.452	25938.0
n/a	n/a	h6	63.0	5.0	LH	53.0	89.0	60.0	80.0	X	right	0.135099999994	26027.0
n/a	n/a	h6	63.0	6.0	LH	58.0	72.0	60.0	80.0	X	right	0.083	26099.0
n/a	n/a	h6	63.0	7.0	LH	56.0	73.0	60.0	80.0	X	right	0.0194000000059	26172.0
n/a	n/a	h6	63.0	8.0	LH	59.0	91.0	60.0	80.0	X	right	0.1405	26263.0
n/a	n/a	h6	63.0	9.0	LH	48.0	67.0	60.0	80.0	X	right	0.161100000024	26330.0
n/a	n/a	h1	64.0	0.0	LH	25.0	38.0	32.0	40.0	L	left	0.234300000012	26355.0
n/a	n/a	h1	64.0	1.0	LH	44.0	57.0	32.0	40.0	L	left	0.284400000006	26399.0
n/a	n/a	h1	64.0	2.0	LH	29.0	47.0	32.0	40.0	R	right	0.235099999994	26446.0
n/a	n/a	h1	64.0	3.0	LH	36.0	31.0	32.0	40.0	L	left	0.289599999994	26482.0
n/a	n/a	h1	64.0	4.0	LH	14.0	23.0	32.0	40.0	X	right	0.316700000018	26505.0
n/a	n/a	h6	65.0	0.0	LH	53.0	39.0	40.0	48.0	R	right	0.234700000018	26544.0
n/a	n/a	h6	65.0	1.0	LH	50.0	55.0	40.0	48.0	R	right	0.450700000018	26599.0
n/a	n/a	h6	65.0	2.0	LH	44.0	56.0	40.0	48.0	L	left	0.200900000006	26643.0
n/a	n/a	h6	65.0	3.0	LH	49.0	50.0	40.0	48.0	R	right	0.675900000006	26693.0
n/a	n/a	h6	65.0	4.0	LH	37.0	38.0	40.0	48.0	X	left	0.871199999988	26730.0
n/a	n/a	h6	65.0	5.0	LH	46.0	28.0	40.0	48.0	X	right	0.233800000012	26758.0
n/a	n/a	h6	65.0	6.0	LH	44.0	58.0	40.0	48.0	X	right	0.119400000006	26816.0
n/a	n/a	h6	65.0	7.0	LH	51.0	64.0	40.0	48.0	X	right	0.0593000000119	26880.0
n/a	n/a	h6	65.0	8.0	LH	36.0	56.0	40.0	48.0	X	right	0.0731999999881	26936.0
n/a	n/a	h6	65.0	9.0	LH	47.0	42.0	40.0	48.0	X	right	0.0840999999941	26978.0
n/a	n/a	h6	66.0	0.0	HL	28.0	15.0	40.0	20.0	L	left	0.185100000024	27006.0
n/a	n/a	h6	66.0	1.0	HL	53.0	16.0	40.0	20.0	L	left	0.2185	27059.0
n/a	n/a	h6	66.0	2.0	HL	34.0	28.0	40.0	20.0	L	left	0.350599999994	27093.0
n/a	n/a	h6	66.0	3.0	HL	53.0	21.0	40.0	20.0	R	right	0.217599999994	27114.0
n/a	n/a	h6	66.0	4.0	HL	40.0	24.0	40.0	20.0	X	left	0.684400000006	27154.0
n/a	n/a	h6	66.0	5.0	HL	52.0	24.0	40.0	20.0	X	right	0.186699999988	27178.0
n/a	n/a	h6	66.0	6.0	HL	55.0	16.0	40.0	20.0	X	left	0.076599999994	27233.0
n/a	n/a	h6	66.0	7.0	HL	24.0	24.0	40.0	20.0	X	left	0.200599999994	27257.0
n/a	n/a	h6	66.0	8.0	HL	40.0	23.0	40.0	20.0	X	left	0.0923999999761	27297.0
n/a	n/a	h6	66.0	9.0	HL	45.0	28.0	40.0	20.0	X	left	0.0838000000119	27342.0
n/a	n/a	h6	67.0	0.0	LH	60.0	79.0	60.0	72.0	R	right	0.354	27421.0
n/a	n/a	h6	67.0	1.0	LH	57.0	66.0	60.0	72.0	R	right	0.368600000024	27487.0
n/a	n/a	h6	67.0	2.0	LH	64.0	65.0	60.0	72.0	L	left	0.190099999994	27551.0
n/a	n/a	h6	67.0	3.0	LH	63.0	69.0	60.0	72.0	R	right	0.267699999988	27620.0
n/a	n/a	h6	67.0	4.0	LH	65.0	75.0	60.0	72.0	X	left	0.767099999994	27685.0
n/a	n/a	h6	67.0	5.0	LH	52.0	77.0	60.0	72.0	X	right	0.231	27762.0
n/a	n/a	h6	67.0	6.0	LH	73.0	86.0	60.0	72.0	X	right	0.150900000006	27848.0
n/a	n/a	h6	67.0	7.0	LH	66.0	80.0	60.0	72.0	X	right	0.0715	27928.0
n/a	n/a	h6	67.0	8.0	LH	57.0	73.0	60.0	72.0	X	right	0.868599999994	28001.0
n/a	n/a	h6	67.0	9.0	LH	60.0	75.0	60.0	72.0	X	right	0.250100000024	28076.0
n/a	n/a	h1	68.0	0.0	LH	45.0	56.0	40.0	60.0	R	right	0.340800000012	28132.0
n/a	n/a	h1	68.0	1.0	LH	29.0	52.0	40.0	60.0	R	right	0.424300000012	28184.0
n/a	n/a	h1	68.0	2.0	LH	47.0	60.0	40.0	60.0	R	right	0.235300000012	28244.0
n/a	n/a	h1	68.0	3.0	LH	36.0	57.0	40.0	60.0	L	left	0.206299999982	28280.0
n/a	n/a	h1	68.0	4.0	LH	41.0	51.0	40.0	60.0	X	right	0.519300000012	28331.0
n/a	n/a	h6	69.0	0.0	LH	25.0	48.0	20.0	40.0	L	left	0.299800000012	28356.0
n/a	n/a	h6	69.0	1.0	LH	20.0	33.0	20.0	40.0	R	right	0.224599999994	28389.0
n/a	n/a	h6	69.0	2.0	LH	8.0	50.0	20.0	40.0	R	right	0.240199999988	28439.0
n/a	n/a	h6	69.0	3.0	LH	14.0	48.0	20.0	40.0	L	left	0.7665	28453.0
n/a	n/a	h6	69.0	4.0	LH	22.0	28.0	20.0	40.0	X	right	0.201099999994	28481.0
n/a	n/a	h6	69.0	5.0	LH	24.0	35.0	20.0	40.0	X	right	0.234699999988	28516.0
n/a	n/a	h6	69.0	6.0	LH	22.0	40.0	20.0	40.0	X	right	0.333600000024	28556.0
n/a	n/a	h6	69.0	7.0	LH	27.0	49.0	20.0	40.0	X	right	0.283900000006	28605.0
n/a	n/a	h6	69.0	8.0	LH	31.0	37.0	20.0	40.0	X	right	0.200299999982	28642.0
n/a	n/a	h6	69.0	9.0	LH	26.0	57.0	20.0	40.0	X	right	0.189400000006	28699.0
n/a	n/a	h1	70.0	0.0	LH	32.0	76.0	40.0	60.0	L	left	0.336	28731.0
n/a	n/a	h1	70.0	1.0	LH	37.0	65.0	40.0	60.0	R	right	0.205599999994	28796.0
n/a	n/a	h1	70.0	2.0	LH	37.0	68.0	40.0	60.0	L	left	0.234599999994	28833.0
n/a	n/a	h1	70.0	3.0	LH	46.0	55.0	40.0	60.0	R	right	0.184799999982	28888.0
n/a	n/a	h1	70.0	4.0	LH	31.0	69.0	40.0	60.0	X	right	0.188600000024	28957.0
n/a	n/a	h1	71.0	0.0	LH	48.0	67.0	40.0	70.0	R	right	0.3045	29024.0
n/a	n/a	h1	71.0	1.0	LH	31.0	62.0	40.0	70.0	L	left	0.2675	29055.0
n/a	n/a	h1	71.0	2.0	LH	39.0	65.0	40.0	70.0	R	right	0.228	29120.0
n/a	n/a	h1	71.0	3.0	LH	50.0	62.0	40.0	70.0	L	left	0.284300000012	29170.0
n/a	n/a	h1	71.0	4.0	LH	47.0	64.0	40.0	70.0	X	right	0.201200000018	29234.0
n/a	n/a	h1	72.0	0.0	LH	32.0	50.0	36.0	40.0	L	left	0.290699999988	29266.0
n/a	n/a	h1	72.0	1.0	LH	39.0	48.0	36.0	40.0	R	right	0.251400000006	29314.0
n/a	n/a	h1	72.0	2.0	LH	32.0	44.0	36.0	40.0	L	left	0.318699999988	29346.0
n/a	n/a	h1	72.0	3.0	LH	44.0	31.0	36.0	40.0	L	left	0.351599999994	29390.0
n/a	n/a	h1	72.0	4.0	LH	27.0	33.0	36.0	40.0	X	right	0.601399999976	29423.0
n/a	n/a	h1	73.0	0.0	LH	29.0	30.0	28.0	40.0	R	right	0.2655	29453.0
n/a	n/a	h1	73.0	1.0	LH	27.0	39.0	28.0	40.0	L	left	0.271099999994	29480.0
n/a	n/a	h1	73.0	2.0	LH	25.0	54.0	28.0	40.0	R	right	0.172200000018	29534.0
n/a	n/a	h1	73.0	3.0	LH	31.0	44.0	28.0	40.0	L	left	0.186599999994	29565.0
n/a	n/a	h1	73.0	4.0	LH	26.0	45.0	28.0	40.0	X	right	0.499900000006	29610.0
n/a	n/a	h1	74.0	0.0	LH	46.0	75.0	48.0	60.0	R	right	0.217599999994	29685.0
n/a	n/a	h1	74.0	1.0	LH	58.0	48.0	48.0	60.0	R	right	0.385	29733.0
n/a	n/a	h1	74.0	2.0	LH	51.0	58.0	48.0	60.0	L	left	0.198700000018	29784.0
n/a	n/a	h1	74.0	3.0	LH	40.0	57.0	48.0	60.0	R	right	0.250299999982	29841.0
n/a	n/a	h1	74.0	4.0	LH	29.0	51.0	48.0	60.0	X	right	0.486099999994	29892.0
n/a	n/a	h1	75.0	0.0	LH	58.0	43.0	56.0	60.0	L	left	0.451399999976	29950.0
n/a	n/a	h1	75.0	1.0	LH	33.0	67.0	56.0	60.0	R	right	0.201300000012	30017.0
n/a	n/a	h1	75.0	2.0	LH	55.0	59.0	56.0	60.0	L	left	0.184699999988	30072.0
n/a	n/a	h1	75.0	3.0	LH	42.0	64.0	56.0	60.0	R	right	0.167599999994	30136.0
n/a	n/a	h1	75.0	4.0	LH	66.0	59.0	56.0	60.0	X	left	0.201300000012	30202.0
n/a	n/a	h6	76.0	0.0	HL	55.0	61.0	60.0	52.0	R	right	0.2835	30263.0
n/a	n/a	h6	76.0	1.0	HL	60.0	43.0	60.0	52.0	L	left	0.2415	30323.0
n/a	n/a	h6	76.0	2.0	HL	65.0	62.0	60.0	52.0	L	left	0.423699999988	30388.0
n/a	n/a	h6	76.0	3.0	HL	53.0	41.0	60.0	52.0	R	right	0.234699999988	30429.0
n/a	n/a	h6	76.0	4.0	HL	61.0	57.0	60.0	52.0	X	left	0.55	30490.0
n/a	n/a	h6	76.0	5.0	HL	59.0	67.0	60.0	52.0	X	left	0.0909000000059	30549.0
n/a	n/a	h6	76.0	6.0	HL	42.0	45.0	60.0	52.0	X	left	0.234300000012	30591.0
n/a	n/a	h6	76.0	7.0	HL	60.0	45.0	60.0	52.0	X	left	0.222800000012	30651.0
n/a	n/a	h6	76.0	8.0	HL	64.0	53.0	60.0	52.0	X	left	0.241199999988	30715.0
n/a	n/a	h6	76.0	9.0	HL	56.0	38.0	60.0	52.0	X	left	0.304599999994	30771.0
n/a	n/a	h1	77.0	0.0	LH	52.0	73.0	52.0	60.0	L	left	0.226599999994	30823.0
n/a	n/a	h1	77.0	1.0	LH	49.0	64.0	52.0	60.0	L	left	0.232800000012	30872.0
n/a	n/a	h1	77.0	2.0	LH	65.0	58.0	52.0	60.0	R	right	0.368	30930.0
n/a	n/a	h1	77.0	3.0	LH	52.0	61.0	52.0	60.0	R	right	1.16809999999	30991.0
n/a	n/a	h1	77.0	4.0	LH	57.0	64.0	52.0	60.0	X	right	0.553099999994	31055.0
n/a	n/a	h6	78.0	0.0	LH	64.0	66.0	60.0	72.0	R	right	0.300399999976	31121.0
n/a	n/a	h6	78.0	1.0	LH	57.0	79.0	60.0	72.0	R	right	0.324400000006	31200.0
n/a	n/a	h6	78.0	2.0	LH	60.0	65.0	60.0	72.0	L	left	0.1915	31260.0
n/a	n/a	h6	78.0	3.0	LH	63.0	63.0	60.0	72.0	R	right	0.2595	31323.0
n/a	n/a	h6	78.0	4.0	LH	67.0	90.0	60.0	72.0	X	right	0.7675	31413.0
n/a	n/a	h6	78.0	5.0	LH	56.0	69.0	60.0	72.0	X	right	0.081800000012	31482.0
n/a	n/a	h6	78.0	6.0	LH	53.0	64.0	60.0	72.0	X	right	0.0539000000059	31546.0
n/a	n/a	h6	78.0	7.0	LH	65.0	72.0	60.0	72.0	X	right	0.0686999999881	31618.0
n/a	n/a	h6	78.0	8.0	LH	54.0	66.0	60.0	72.0	X	right	0.0529000000059	31684.0
n/a	n/a	h6	78.0	9.0	LH	63.0	62.0	60.0	72.0	X	right	0.0582000000178	31746.0
n/a	n/a	h1	79.0	0.0	LH	36.0	57.0	40.0	60.0	R	right	0.405600000024	31803.0
n/a	n/a	h1	79.0	1.0	LH	29.0	52.0	40.0	60.0	R	right	0.317199999988	31855.0
n/a	n/a	h1	79.0	2.0	LH	47.0	60.0	40.0	60.0	R	right	0.434800000012	31915.0
n/a	n/a	h1	79.0	3.0	LH	45.0	56.0	40.0	60.0	L	left	0.418300000012	31960.0
n/a	n/a	h1	79.0	4.0	LH	31.0	50.0	40.0	60.0	X	right	0.3675	32010.0
