onset	duration	trial_type	trial_number	bandit_num	mean_type	left_reward	right_reward	left_mean	right_mean	force_pos	response	response_time	points
n/a	n/a	h1	0.0	0.0	LH	40.0	64.0	40.0	52.0	L	left	1.23539999986	40.0
n/a	n/a	h1	0.0	1.0	LH	44.0	48.0	40.0	52.0	L	left	101.9046	84.0
n/a	n/a	h1	0.0	2.0	LH	58.0	52.0	40.0	52.0	R	right	0.634900000095	136.0
n/a	n/a	h1	0.0	3.0	LH	40.0	62.0	40.0	52.0	L	left	0.422200000048	176.0
n/a	n/a	h1	0.0	4.0	LH	52.0	40.0	40.0	52.0	X	left	0.499900000095	228.0
n/a	n/a	h6	1.0	0.0	LH	58.0	58.0	60.0	64.0	R	right	0.405799999952	286.0
n/a	n/a	h6	1.0	1.0	LH	59.0	60.0	60.0	64.0	L	left	0.703	345.0
n/a	n/a	h6	1.0	2.0	LH	61.0	64.0	60.0	64.0	R	right	0.417900000095	409.0
n/a	n/a	h6	1.0	3.0	LH	55.0	63.0	60.0	64.0	R	right	0.325899999857	472.0
n/a	n/a	h6	1.0	4.0	LH	69.0	69.0	60.0	64.0	X	right	0.535299999952	541.0
n/a	n/a	h6	1.0	5.0	LH	58.0	77.0	60.0	64.0	X	right	0.390299999952	618.0
n/a	n/a	h6	1.0	6.0	LH	51.0	47.0	60.0	64.0	X	left	0.567900000095	669.0
n/a	n/a	h6	1.0	7.0	LH	52.0	56.0	60.0	64.0	X	left	0.501199999809	721.0
n/a	n/a	h6	1.0	8.0	LH	62.0	56.0	60.0	64.0	X	left	0.418700000048	783.0
n/a	n/a	h6	1.0	9.0	LH	61.0	72.0	60.0	64.0	X	right	0.371699999809	855.0
n/a	n/a	h1	2.0	0.0	LH	48.0	67.0	40.0	70.0	R	right	0.386600000143	922.0
n/a	n/a	h1	2.0	1.0	LH	47.0	62.0	40.0	70.0	L	left	0.418	969.0
n/a	n/a	h1	2.0	2.0	LH	39.0	62.0	40.0	70.0	R	right	0.308299999952	1031.0
n/a	n/a	h1	2.0	3.0	LH	35.0	65.0	40.0	70.0	L	left	0.402600000143	1066.0
n/a	n/a	h1	2.0	4.0	LH	50.0	67.0	40.0	70.0	X	right	1.03630000019	1133.0
n/a	n/a	h1	3.0	0.0	LH	31.0	44.0	28.0	40.0	R	right	0.501299999952	1177.0
n/a	n/a	h1	3.0	1.0	LH	27.0	54.0	28.0	40.0	L	left	0.403400000095	1204.0
n/a	n/a	h1	3.0	2.0	LH	25.0	39.0	28.0	40.0	R	right	0.2695	1243.0
n/a	n/a	h1	3.0	3.0	LH	29.0	30.0	28.0	40.0	L	left	0.367700000048	1272.0
n/a	n/a	h1	3.0	4.0	LH	29.0	47.0	28.0	40.0	X	left	0.807799999952	1301.0
n/a	n/a	h1	4.0	0.0	HL	67.0	22.0	60.0	30.0	R	right	0.308100000143	1323.0
n/a	n/a	h1	4.0	1.0	HL	55.0	38.0	60.0	30.0	R	right	0.29	1361.0
n/a	n/a	h1	4.0	2.0	HL	83.0	34.0	60.0	30.0	R	right	0.320400000095	1395.0
n/a	n/a	h1	4.0	3.0	HL	67.0	27.0	60.0	30.0	L	left	0.317900000095	1462.0
n/a	n/a	h1	4.0	4.0	HL	64.0	30.0	60.0	30.0	X	left	0.318200000048	1526.0
n/a	n/a	h1	5.0	0.0	HL	75.0	55.0	72.0	60.0	L	left	0.384700000048	1601.0
n/a	n/a	h1	5.0	1.0	HL	62.0	75.0	72.0	60.0	R	right	0.372600000143	1676.0
n/a	n/a	h1	5.0	2.0	HL	69.0	58.0	72.0	60.0	L	left	0.351900000095	1745.0
n/a	n/a	h1	5.0	3.0	HL	69.0	50.0	72.0	60.0	R	right	0.427699999809	1795.0
n/a	n/a	h1	5.0	4.0	HL	81.0	50.0	72.0	60.0	X	right	0.708700000048	1845.0
n/a	n/a	h1	6.0	0.0	HL	62.0	66.0	68.0	60.0	R	right	0.773	1911.0
n/a	n/a	h1	6.0	1.0	HL	76.0	44.0	68.0	60.0	L	left	0.319099999905	1987.0
n/a	n/a	h1	6.0	2.0	HL	60.0	51.0	68.0	60.0	L	left	0.317599999905	2047.0
n/a	n/a	h1	6.0	3.0	HL	57.0	54.0	68.0	60.0	R	right	0.302	2101.0
n/a	n/a	h1	6.0	4.0	HL	63.0	47.0	68.0	60.0	X	left	0.668400000095	2164.0
n/a	n/a	h1	7.0	0.0	HL	39.0	32.0	44.0	40.0	L	left	0.317700000048	2203.0
n/a	n/a	h1	7.0	1.0	HL	49.0	52.0	44.0	40.0	L	left	0.310299999952	2252.0
n/a	n/a	h1	7.0	2.0	HL	39.0	32.0	44.0	40.0	L	left	0.291899999857	2291.0
n/a	n/a	h1	7.0	3.0	HL	36.0	47.0	44.0	40.0	R	right	0.3545	2338.0
n/a	n/a	h1	7.0	4.0	HL	39.0	37.0	44.0	40.0	X	right	0.622299999952	2375.0
n/a	n/a	h6	8.0	0.0	HL	96.0	65.0	90.0	60.0	L	left	0.594	2471.0
n/a	n/a	h6	8.0	1.0	HL	88.0	57.0	90.0	60.0	L	left	0.387900000095	2559.0
n/a	n/a	h6	8.0	2.0	HL	84.0	59.0	90.0	60.0	R	right	0.417799999952	2618.0
n/a	n/a	h6	8.0	3.0	HL	76.0	67.0	90.0	60.0	R	right	0.709599999905	2685.0
n/a	n/a	h6	8.0	4.0	HL	99.0	71.0	90.0	60.0	X	left	0.757	2784.0
n/a	n/a	h6	8.0	5.0	HL	92.0	41.0	90.0	60.0	X	left	0.568299999952	2876.0
n/a	n/a	h6	8.0	6.0	HL	81.0	65.0	90.0	60.0	X	right	0.584699999809	2941.0
n/a	n/a	h6	8.0	7.0	HL	95.0	52.0	90.0	60.0	X	left	0.634599999905	3036.0
n/a	n/a	h6	8.0	8.0	HL	90.0	70.0	90.0	60.0	X	left	0.518200000048	3126.0
n/a	n/a	h6	8.0	9.0	HL	99.0	56.0	90.0	60.0	X	right	0.518099999905	3182.0
n/a	n/a	h6	9.0	0.0	HL	39.0	36.0	40.0	36.0	R	right	0.835400000095	3218.0
n/a	n/a	h6	9.0	1.0	HL	31.0	21.0	40.0	36.0	R	right	1.069	3239.0
n/a	n/a	h6	9.0	2.0	HL	46.0	27.0	40.0	36.0	L	left	0.343100000143	3285.0
n/a	n/a	h6	9.0	3.0	HL	26.0	50.0	40.0	36.0	L	left	0.387300000191	3311.0
n/a	n/a	h6	9.0	4.0	HL	41.0	28.0	40.0	36.0	X	left	0.526	3352.0
n/a	n/a	h6	9.0	5.0	HL	35.0	37.0	40.0	36.0	X	left	0.867899999857	3387.0
n/a	n/a	h6	9.0	6.0	HL	36.0	38.0	40.0	36.0	X	right	0.217700000048	3425.0
n/a	n/a	h6	9.0	7.0	HL	46.0	22.0	40.0	36.0	X	right	0.367900000095	3447.0
n/a	n/a	h6	9.0	8.0	HL	35.0	32.0	40.0	36.0	X	right	0.566400000095	3479.0
n/a	n/a	h6	9.0	9.0	HL	37.0	30.0	40.0	36.0	X	left	0.753599999905	3516.0
n/a	n/a	h1	10.0	0.0	HL	70.0	46.0	60.0	40.0	R	right	0.344700000048	3562.0
n/a	n/a	h1	10.0	1.0	HL	54.0	36.0	60.0	40.0	R	right	0.356700000048	3598.0
n/a	n/a	h1	10.0	2.0	HL	46.0	26.0	60.0	40.0	R	right	0.401599999905	3624.0
n/a	n/a	h1	10.0	3.0	HL	68.0	32.0	60.0	40.0	L	left	0.319899999857	3692.0
n/a	n/a	h1	10.0	4.0	HL	61.0	46.0	60.0	40.0	X	right	0.790200000048	3738.0
n/a	n/a	h1	11.0	0.0	HL	30.0	11.0	40.0	10.0	R	right	0.401899999857	3749.0
n/a	n/a	h1	11.0	1.0	HL	39.0	7.0	40.0	10.0	L	left	0.370300000191	3788.0
n/a	n/a	h1	11.0	2.0	HL	45.0	1.0	40.0	10.0	R	right	0.253100000143	3789.0
n/a	n/a	h1	11.0	3.0	HL	34.0	9.0	40.0	10.0	L	left	0.455099999905	3823.0
n/a	n/a	h1	11.0	4.0	HL	33.0	19.0	40.0	10.0	X	left	0.637899999857	3856.0
n/a	n/a	h6	12.0	0.0	LH	27.0	80.0	30.0	60.0	R	right	0.240200000048	3936.0
n/a	n/a	h6	12.0	1.0	LH	40.0	61.0	30.0	60.0	R	right	0.352700000048	3997.0
n/a	n/a	h6	12.0	2.0	LH	20.0	58.0	30.0	60.0	L	left	0.572	4017.0
n/a	n/a	h6	12.0	3.0	LH	25.0	65.0	30.0	60.0	L	left	0.27	4042.0
n/a	n/a	h6	12.0	4.0	LH	34.0	60.0	30.0	60.0	X	right	1.0530999999	4102.0
n/a	n/a	h6	12.0	5.0	LH	33.0	53.0	30.0	60.0	X	right	0.4905	4155.0
n/a	n/a	h6	12.0	6.0	LH	33.0	73.0	30.0	60.0	X	left	0.353299999952	4188.0
n/a	n/a	h6	12.0	7.0	LH	18.0	45.0	30.0	60.0	X	left	0.173099999905	4206.0
n/a	n/a	h6	12.0	8.0	LH	37.0	68.0	30.0	60.0	X	right	0.607400000095	4274.0
n/a	n/a	h6	12.0	9.0	LH	33.0	60.0	30.0	60.0	X	left	0.569100000143	4307.0
n/a	n/a	h6	13.0	0.0	LH	58.0	58.0	60.0	64.0	R	right	0.887399999857	4365.0
n/a	n/a	h6	13.0	1.0	LH	59.0	60.0	60.0	64.0	L	left	0.303	4424.0
n/a	n/a	h6	13.0	2.0	LH	61.0	64.0	60.0	64.0	R	right	0.7015	4488.0
n/a	n/a	h6	13.0	3.0	LH	55.0	61.0	60.0	64.0	R	right	0.217700000048	4549.0
n/a	n/a	h6	13.0	4.0	LH	73.0	70.0	60.0	64.0	X	left	0.505400000095	4622.0
n/a	n/a	h6	13.0	5.0	LH	69.0	59.0	60.0	64.0	X	left	0.909599999905	4691.0
n/a	n/a	h6	13.0	6.0	LH	58.0	75.0	60.0	64.0	X	left	0.277200000048	4749.0
n/a	n/a	h6	13.0	7.0	LH	61.0	68.0	60.0	64.0	X	left	0.659200000048	4810.0
n/a	n/a	h6	13.0	8.0	LH	58.0	56.0	60.0	64.0	X	right	0.258599999905	4866.0
n/a	n/a	h6	13.0	9.0	LH	62.0	79.0	60.0	64.0	X	right	0.288599999905	4945.0
n/a	n/a	h6	14.0	0.0	LH	44.0	39.0	40.0	48.0	R	right	0.290799999952	4984.0
n/a	n/a	h6	14.0	1.0	LH	50.0	55.0	40.0	48.0	R	right	0.256799999952	5039.0
n/a	n/a	h6	14.0	2.0	LH	53.0	56.0	40.0	48.0	L	left	0.399400000095	5092.0
n/a	n/a	h6	14.0	3.0	LH	49.0	58.0	40.0	48.0	R	right	0.334	5150.0
n/a	n/a	h6	14.0	4.0	LH	40.0	44.0	40.0	48.0	X	left	0.650700000048	5190.0
n/a	n/a	h6	14.0	5.0	LH	43.0	57.0	40.0	48.0	X	left	0.325200000048	5233.0
n/a	n/a	h6	14.0	6.0	LH	39.0	43.0	40.0	48.0	X	right	0.368900000095	5276.0
n/a	n/a	h6	14.0	7.0	LH	43.0	56.0	40.0	48.0	X	right	0.384299999952	5332.0
n/a	n/a	h6	14.0	8.0	LH	23.0	56.0	40.0	48.0	X	right	0.250299999952	5388.0
n/a	n/a	h6	14.0	9.0	LH	42.0	49.0	40.0	48.0	X	left	0.201400000095	5430.0
n/a	n/a	h1	15.0	0.0	HL	65.0	59.0	68.0	60.0	L	left	0.769799999952	5495.0
n/a	n/a	h1	15.0	1.0	HL	57.0	61.0	68.0	60.0	R	right	0.296	5556.0
n/a	n/a	h1	15.0	2.0	HL	54.0	48.0	68.0	60.0	L	left	0.418	5610.0
n/a	n/a	h1	15.0	3.0	HL	70.0	58.0	68.0	60.0	L	left	0.4145	5680.0
n/a	n/a	h1	15.0	4.0	HL	69.0	51.0	68.0	60.0	X	right	0.358	5731.0
n/a	n/a	h6	16.0	0.0	LH	72.0	71.0	60.0	64.0	L	left	0.404	5803.0
n/a	n/a	h6	16.0	1.0	LH	65.0	87.0	60.0	64.0	L	left	0.334200000048	5868.0
n/a	n/a	h6	16.0	2.0	LH	61.0	70.0	60.0	64.0	R	right	0.334400000095	5938.0
n/a	n/a	h6	16.0	3.0	LH	61.0	76.0	60.0	64.0	R	right	0.350599999905	6014.0
n/a	n/a	h6	16.0	4.0	LH	71.0	66.0	60.0	64.0	X	left	0.418100000143	6085.0
n/a	n/a	h6	16.0	5.0	LH	49.0	59.0	60.0	64.0	X	left	0.351599999905	6134.0
n/a	n/a	h6	16.0	6.0	LH	65.0	50.0	60.0	64.0	X	right	0.568200000048	6184.0
n/a	n/a	h6	16.0	7.0	LH	56.0	76.0	60.0	64.0	X	left	0.583700000048	6240.0
n/a	n/a	h6	16.0	8.0	LH	58.0	59.0	60.0	64.0	X	left	0.218699999809	6298.0
n/a	n/a	h6	16.0	9.0	LH	71.0	64.0	60.0	64.0	X	left	0.392199999809	6369.0
n/a	n/a	h6	17.0	0.0	LH	43.0	58.0	40.0	52.0	L	left	0.618600000143	6412.0
n/a	n/a	h6	17.0	1.0	LH	32.0	39.0	40.0	52.0	R	right	0.294799999952	6451.0
n/a	n/a	h6	17.0	2.0	LH	45.0	53.0	40.0	52.0	L	left	0.275900000095	6496.0
n/a	n/a	h6	17.0	3.0	LH	62.0	60.0	40.0	52.0	R	right	0.258400000095	6556.0
n/a	n/a	h6	17.0	4.0	LH	32.0	54.0	40.0	52.0	X	left	0.551799999952	6588.0
n/a	n/a	h6	17.0	5.0	LH	52.0	51.0	40.0	52.0	X	left	0.0522000000477	6640.0
n/a	n/a	h6	17.0	6.0	LH	46.0	54.0	40.0	52.0	X	right	0.1065	6694.0
n/a	n/a	h6	17.0	7.0	LH	55.0	58.0	40.0	52.0	X	right	0.150600000143	6752.0
n/a	n/a	h6	17.0	8.0	LH	47.0	61.0	40.0	52.0	X	right	0.483700000048	6813.0
n/a	n/a	h6	17.0	9.0	LH	48.0	45.0	40.0	52.0	X	left	0.267899999857	6861.0
n/a	n/a	h6	18.0	0.0	HL	28.0	15.0	40.0	20.0	L	left	0.4595	6889.0
n/a	n/a	h6	18.0	1.0	HL	53.0	16.0	40.0	20.0	L	left	0.308299999952	6942.0
n/a	n/a	h6	18.0	2.0	HL	55.0	28.0	40.0	20.0	L	left	0.287799999952	6997.0
n/a	n/a	h6	18.0	3.0	HL	53.0	20.0	40.0	20.0	R	right	0.317799999952	7017.0
n/a	n/a	h6	18.0	4.0	HL	53.0	3.0	40.0	20.0	X	left	0.534799999952	7070.0
n/a	n/a	h6	18.0	5.0	HL	40.0	15.0	40.0	20.0	X	left	0.604800000191	7110.0
n/a	n/a	h6	18.0	6.0	HL	45.0	4.0	40.0	20.0	X	left	0.618200000048	7155.0
n/a	n/a	h6	18.0	7.0	HL	41.0	28.0	40.0	20.0	X	left	0.401399999857	7196.0
n/a	n/a	h6	18.0	8.0	HL	43.0	25.0	40.0	20.0	X	right	0.5515	7221.0
n/a	n/a	h6	18.0	9.0	HL	47.0	26.0	40.0	20.0	X	left	0.585900000095	7268.0
n/a	n/a	h1	19.0	0.0	LH	66.0	43.0	56.0	60.0	L	left	2.401	7334.0
n/a	n/a	h1	19.0	1.0	LH	33.0	67.0	56.0	60.0	R	right	0.3095	7401.0
n/a	n/a	h1	19.0	2.0	LH	42.0	59.0	56.0	60.0	L	left	0.354699999809	7443.0
n/a	n/a	h1	19.0	3.0	LH	55.0	64.0	56.0	60.0	R	right	0.437400000095	7507.0
n/a	n/a	h1	19.0	4.0	LH	47.0	58.0	56.0	60.0	X	left	0.951900000095	7554.0
n/a	n/a	h1	20.0	0.0	LH	25.0	23.0	32.0	40.0	L	left	0.523399999857	7579.0
n/a	n/a	h1	20.0	1.0	LH	29.0	57.0	32.0	40.0	L	left	0.403700000048	7608.0
n/a	n/a	h1	20.0	2.0	LH	44.0	38.0	32.0	40.0	R	right	0.474600000143	7646.0
n/a	n/a	h1	20.0	3.0	LH	36.0	31.0	32.0	40.0	L	left	0.286899999857	7682.0
n/a	n/a	h1	20.0	4.0	LH	39.0	48.0	32.0	40.0	X	right	0.501299999952	7730.0
n/a	n/a	h6	21.0	0.0	HL	43.0	35.0	40.0	28.0	R	right	0.405	7765.0
n/a	n/a	h6	21.0	1.0	HL	31.0	21.0	40.0	28.0	R	right	0.4865	7786.0
n/a	n/a	h6	21.0	2.0	HL	40.0	28.0	40.0	28.0	R	right	0.367799999952	7814.0
n/a	n/a	h6	21.0	3.0	HL	36.0	23.0	40.0	28.0	L	left	0.351	7850.0
n/a	n/a	h6	21.0	4.0	HL	40.0	27.0	40.0	28.0	X	left	0.351600000143	7890.0
n/a	n/a	h6	21.0	5.0	HL	46.0	20.0	40.0	28.0	X	left	0.3735	7936.0
n/a	n/a	h6	21.0	6.0	HL	50.0	21.0	40.0	28.0	X	right	0.435700000048	7957.0
n/a	n/a	h6	21.0	7.0	HL	41.0	37.0	40.0	28.0	X	right	0.334199999809	7994.0
n/a	n/a	h6	21.0	8.0	HL	44.0	19.0	40.0	28.0	X	left	0.290400000095	8038.0
n/a	n/a	h6	21.0	9.0	HL	37.0	25.0	40.0	28.0	X	left	0.1845	8075.0
n/a	n/a	h1	22.0	0.0	LH	32.0	76.0	40.0	60.0	L	left	0.287	8107.0
n/a	n/a	h1	22.0	1.0	LH	37.0	65.0	40.0	60.0	R	right	0.296	8172.0
n/a	n/a	h1	22.0	2.0	LH	46.0	68.0	40.0	60.0	L	left	0.225299999952	8218.0
n/a	n/a	h1	22.0	3.0	LH	37.0	69.0	40.0	60.0	R	right	0.321799999952	8287.0
n/a	n/a	h1	22.0	4.0	LH	40.0	53.0	40.0	60.0	X	left	0.3655	8327.0
n/a	n/a	h6	23.0	0.0	HL	49.0	36.0	60.0	40.0	L	left	0.269	8376.0
n/a	n/a	h6	23.0	1.0	HL	68.0	43.0	60.0	40.0	R	right	0.201799999952	8419.0
n/a	n/a	h6	23.0	2.0	HL	55.0	40.0	60.0	40.0	L	left	0.234699999809	8474.0
n/a	n/a	h6	23.0	3.0	HL	67.0	41.0	60.0	40.0	R	right	0.538700000048	8515.0
n/a	n/a	h6	23.0	4.0	HL	49.0	34.0	60.0	40.0	X	right	0.517800000191	8549.0
n/a	n/a	h6	23.0	5.0	HL	57.0	35.0	60.0	40.0	X	left	0.290600000143	8606.0
n/a	n/a	h6	23.0	6.0	HL	55.0	50.0	60.0	40.0	X	left	0.167800000191	8661.0
n/a	n/a	h6	23.0	7.0	HL	54.0	28.0	60.0	40.0	X	right	0.184400000095	8689.0
n/a	n/a	h6	23.0	8.0	HL	66.0	35.0	60.0	40.0	X	left	0.283600000143	8755.0
n/a	n/a	h6	23.0	9.0	HL	54.0	40.0	60.0	40.0	X	left	0.0677000000477	8809.0
n/a	n/a	h6	24.0	0.0	LH	40.0	38.0	40.0	48.0	L	left	0.2845	8849.0
n/a	n/a	h6	24.0	1.0	LH	37.0	44.0	40.0	48.0	L	left	0.305399999857	8886.0
n/a	n/a	h6	24.0	2.0	LH	60.0	44.0	40.0	48.0	R	right	0.392299999952	8930.0
n/a	n/a	h6	24.0	3.0	LH	42.0	52.0	40.0	48.0	R	right	0.369299999952	8982.0
n/a	n/a	h6	24.0	4.0	LH	52.0	55.0	40.0	48.0	X	left	0.301299999952	9034.0
n/a	n/a	h6	24.0	5.0	LH	46.0	51.0	40.0	48.0	X	right	0.201	9085.0
n/a	n/a	h6	24.0	6.0	LH	50.0	51.0	40.0	48.0	X	left	0.134299999952	9135.0
n/a	n/a	h6	24.0	7.0	LH	47.0	34.0	40.0	48.0	X	right	0.317599999905	9169.0
n/a	n/a	h6	24.0	8.0	LH	30.0	49.0	40.0	48.0	X	left	0.122299999952	9199.0
n/a	n/a	h6	24.0	9.0	LH	29.0	53.0	40.0	48.0	X	right	0.217599999905	9252.0
n/a	n/a	h6	25.0	0.0	LH	25.0	48.0	20.0	40.0	L	left	0.292199999809	9277.0
n/a	n/a	h6	25.0	1.0	LH	20.0	48.0	20.0	40.0	R	right	0.192	9325.0
n/a	n/a	h6	25.0	2.0	LH	8.0	28.0	20.0	40.0	R	right	0.418899999857	9353.0
n/a	n/a	h6	25.0	3.0	LH	22.0	33.0	20.0	40.0	L	left	0.284	9375.0
n/a	n/a	h6	25.0	4.0	LH	29.0	28.0	20.0	40.0	X	right	0.217900000095	9403.0
n/a	n/a	h6	25.0	5.0	LH	16.0	39.0	20.0	40.0	X	right	0.368099999905	9442.0
n/a	n/a	h6	25.0	6.0	LH	41.0	51.0	20.0	40.0	X	right	0.134899999857	9493.0
n/a	n/a	h6	25.0	7.0	LH	22.0	35.0	20.0	40.0	X	right	0.168099999905	9528.0
n/a	n/a	h6	25.0	8.0	LH	30.0	50.0	20.0	40.0	X	left	0.317	9558.0
n/a	n/a	h6	25.0	9.0	LH	14.0	34.0	20.0	40.0	X	left	0.406100000143	9572.0
n/a	n/a	h6	26.0	0.0	LH	69.0	60.0	56.0	60.0	R	right	0.301700000048	9632.0
n/a	n/a	h6	26.0	1.0	LH	55.0	53.0	56.0	60.0	L	left	0.234599999905	9687.0
n/a	n/a	h6	26.0	2.0	LH	57.0	59.0	56.0	60.0	L	left	0.270899999857	9744.0
n/a	n/a	h6	26.0	3.0	LH	62.0	46.0	56.0	60.0	L	left	0.501400000095	9806.0
n/a	n/a	h6	26.0	4.0	LH	50.0	63.0	56.0	60.0	X	right	1.3939000001	9869.0
n/a	n/a	h6	26.0	5.0	LH	65.0	68.0	56.0	60.0	X	right	0.386	9937.0
n/a	n/a	h6	26.0	6.0	LH	59.0	64.0	56.0	60.0	X	left	0.895099999905	9996.0
n/a	n/a	h6	26.0	7.0	LH	46.0	52.0	56.0	60.0	X	left	0.852100000143	10042.0
n/a	n/a	h6	26.0	8.0	LH	68.0	58.0	56.0	60.0	X	right	0.6015	10100.0
n/a	n/a	h6	26.0	9.0	LH	62.0	62.0	56.0	60.0	X	right	0.521200000048	10162.0
n/a	n/a	h1	27.0	0.0	HL	57.0	35.0	60.0	40.0	L	left	0.337199999809	10219.0
n/a	n/a	h1	27.0	1.0	HL	63.0	50.0	60.0	40.0	R	right	0.301299999952	10269.0
n/a	n/a	h1	27.0	2.0	HL	57.0	53.0	60.0	40.0	L	left	0.283	10326.0
n/a	n/a	h1	27.0	3.0	HL	54.0	48.0	60.0	40.0	R	right	0.351	10374.0
n/a	n/a	h1	27.0	4.0	HL	62.0	36.0	60.0	40.0	X	left	1.6034000001	10436.0
n/a	n/a	h6	28.0	0.0	HL	43.0	26.0	40.0	28.0	R	right	0.270199999809	10462.0
n/a	n/a	h6	28.0	1.0	HL	31.0	21.0	40.0	28.0	R	right	0.351	10483.0
n/a	n/a	h6	28.0	2.0	HL	36.0	25.0	40.0	28.0	R	right	0.302	10508.0
n/a	n/a	h6	28.0	3.0	HL	40.0	23.0	40.0	28.0	L	left	0.308899999857	10548.0
n/a	n/a	h6	28.0	4.0	HL	40.0	18.0	40.0	28.0	X	left	1.442	10588.0
n/a	n/a	h6	28.0	5.0	HL	42.0	29.0	40.0	28.0	X	left	0.319699999809	10630.0
n/a	n/a	h6	28.0	6.0	HL	38.0	28.0	40.0	28.0	X	left	0.686400000095	10668.0
n/a	n/a	h6	28.0	7.0	HL	43.0	28.0	40.0	28.0	X	right	0.522799999952	10696.0
n/a	n/a	h6	28.0	8.0	HL	43.0	29.0	40.0	28.0	X	right	0.585099999905	10725.0
n/a	n/a	h6	28.0	9.0	HL	45.0	35.0	40.0	28.0	X	right	0.718	10760.0
n/a	n/a	h6	29.0	0.0	LH	22.0	58.0	40.0	52.0	L	left	0.835400000095	10782.0
n/a	n/a	h6	29.0	1.0	LH	32.0	51.0	40.0	52.0	R	right	0.284	10833.0
n/a	n/a	h6	29.0	2.0	LH	62.0	53.0	40.0	52.0	L	left	0.2675	10895.0
n/a	n/a	h6	29.0	3.0	LH	52.0	54.0	40.0	52.0	R	right	0.227700000048	10949.0
n/a	n/a	h6	29.0	4.0	LH	37.0	56.0	40.0	52.0	X	left	0.501299999952	10986.0
n/a	n/a	h6	29.0	5.0	LH	45.0	43.0	40.0	52.0	X	right	1.2070999999	11029.0
n/a	n/a	h6	29.0	6.0	LH	55.0	51.0	40.0	52.0	X	right	0.544299999952	11080.0
n/a	n/a	h6	29.0	7.0	LH	45.0	42.0	40.0	52.0	X	left	0.771799999952	11125.0
n/a	n/a	h6	29.0	8.0	LH	49.0	39.0	40.0	52.0	X	right	0.683899999857	11164.0
n/a	n/a	h6	29.0	9.0	LH	34.0	68.0	40.0	52.0	X	left	0.5075	11198.0
n/a	n/a	h1	30.0	0.0	LH	43.0	75.0	40.0	70.0	R	right	1.12439999986	11273.0
n/a	n/a	h1	30.0	1.0	LH	30.0	80.0	40.0	70.0	R	right	0.485600000143	11353.0
n/a	n/a	h1	30.0	2.0	LH	40.0	70.0	40.0	70.0	R	right	0.253700000048	11423.0
n/a	n/a	h1	30.0	3.0	LH	22.0	65.0	40.0	70.0	L	left	0.3085	11445.0
n/a	n/a	h1	30.0	4.0	LH	40.0	78.0	40.0	70.0	X	left	0.885599999905	11485.0
n/a	n/a	h1	31.0	0.0	HL	60.0	66.0	68.0	60.0	R	right	0.375700000048	11551.0
n/a	n/a	h1	31.0	1.0	HL	62.0	54.0	68.0	60.0	L	left	0.852799999952	11613.0
n/a	n/a	h1	31.0	2.0	HL	76.0	51.0	68.0	60.0	L	left	0.301	11689.0
n/a	n/a	h1	31.0	3.0	HL	57.0	60.0	68.0	60.0	R	right	0.4705	11749.0
n/a	n/a	h1	31.0	4.0	HL	64.0	44.0	68.0	60.0	X	left	0.844200000048	11813.0
n/a	n/a	h1	32.0	0.0	HL	30.0	7.0	40.0	10.0	R	right	0.516200000048	11820.0
n/a	n/a	h1	32.0	1.0	HL	39.0	11.0	40.0	10.0	L	left	0.285399999857	11859.0
n/a	n/a	h1	32.0	2.0	HL	45.0	1.0	40.0	10.0	R	right	0.27	11860.0
n/a	n/a	h1	32.0	3.0	HL	46.0	17.0	40.0	10.0	L	left	0.373399999857	11906.0
n/a	n/a	h1	32.0	4.0	HL	34.0	9.0	40.0	10.0	X	left	0.835299999952	11940.0
n/a	n/a	h6	33.0	0.0	HL	49.0	41.0	60.0	40.0	L	left	0.317900000095	11989.0
n/a	n/a	h6	33.0	1.0	HL	68.0	43.0	60.0	40.0	R	right	0.284600000143	12032.0
n/a	n/a	h6	33.0	2.0	HL	67.0	40.0	60.0	40.0	L	left	0.535799999952	12099.0
n/a	n/a	h6	33.0	3.0	HL	55.0	36.0	60.0	40.0	R	right	0.437799999952	12135.0
n/a	n/a	h6	33.0	4.0	HL	59.0	49.0	60.0	40.0	X	left	0.685200000048	12194.0
n/a	n/a	h6	33.0	5.0	HL	60.0	28.0	60.0	40.0	X	left	0.351299999952	12254.0
n/a	n/a	h6	33.0	6.0	HL	50.0	48.0	60.0	40.0	X	left	0.801300000191	12304.0
n/a	n/a	h6	33.0	7.0	HL	64.0	50.0	60.0	40.0	X	left	0.334900000095	12368.0
n/a	n/a	h6	33.0	8.0	HL	57.0	31.0	60.0	40.0	X	right	0.400200000048	12399.0
n/a	n/a	h6	33.0	9.0	HL	54.0	45.0	60.0	40.0	X	left	0.307	12453.0
n/a	n/a	h6	34.0	0.0	LH	62.0	77.0	60.0	80.0	L	left	0.291799999952	12515.0
n/a	n/a	h6	34.0	1.0	LH	60.0	67.0	60.0	80.0	L	left	0.288700000048	12575.0
n/a	n/a	h6	34.0	2.0	LH	58.0	68.0	60.0	80.0	L	left	0.318600000143	12633.0
n/a	n/a	h6	34.0	3.0	LH	57.0	78.0	60.0	80.0	R	right	0.334599999905	12711.0
n/a	n/a	h6	34.0	4.0	LH	66.0	90.0	60.0	80.0	X	right	0.838799999952	12801.0
n/a	n/a	h6	34.0	5.0	LH	81.0	75.0	60.0	80.0	X	right	0.401300000191	12876.0
n/a	n/a	h6	34.0	6.0	LH	67.0	84.0	60.0	80.0	X	left	0.5855	12943.0
n/a	n/a	h6	34.0	7.0	LH	53.0	68.0	60.0	80.0	X	right	1.01870000005	13011.0
n/a	n/a	h6	34.0	8.0	LH	72.0	88.0	60.0	80.0	X	right	0.532899999857	13099.0
n/a	n/a	h6	34.0	9.0	LH	58.0	63.0	60.0	80.0	X	left	0.170900000095	13157.0
n/a	n/a	h6	35.0	0.0	LH	27.0	48.0	30.0	60.0	R	right	0.3685	13205.0
n/a	n/a	h6	35.0	1.0	LH	40.0	61.0	30.0	60.0	R	right	0.301	13266.0
n/a	n/a	h6	35.0	2.0	LH	20.0	58.0	30.0	60.0	L	left	0.301399999857	13286.0
n/a	n/a	h6	35.0	3.0	LH	38.0	65.0	30.0	60.0	L	left	0.267600000143	13324.0
n/a	n/a	h6	35.0	4.0	LH	30.0	62.0	30.0	60.0	X	right	0.1845	13386.0
n/a	n/a	h6	35.0	5.0	LH	25.0	58.0	30.0	60.0	X	right	0.868	13444.0
n/a	n/a	h6	35.0	6.0	LH	32.0	69.0	30.0	60.0	X	right	0.840200000048	13513.0
n/a	n/a	h6	35.0	7.0	LH	38.0	65.0	30.0	60.0	X	left	0.1675	13551.0
n/a	n/a	h6	35.0	8.0	LH	40.0	80.0	30.0	60.0	X	right	0.290799999952	13631.0
n/a	n/a	h6	35.0	9.0	LH	18.0	68.0	30.0	60.0	X	left	0.101299999952	13649.0
n/a	n/a	h1	36.0	0.0	HL	70.0	37.0	60.0	40.0	R	right	0.219799999952	13686.0
n/a	n/a	h1	36.0	1.0	HL	68.0	36.0	60.0	40.0	R	right	0.284099999905	13722.0
n/a	n/a	h1	36.0	2.0	HL	46.0	26.0	60.0	40.0	R	right	0.317399999857	13748.0
n/a	n/a	h1	36.0	3.0	HL	54.0	32.0	60.0	40.0	L	left	0.291400000095	13802.0
n/a	n/a	h1	36.0	4.0	HL	54.0	46.0	60.0	40.0	X	left	1.37620000005	13856.0
n/a	n/a	h1	37.0	0.0	LH	51.0	75.0	48.0	60.0	R	right	0.339799999952	13931.0
n/a	n/a	h1	37.0	1.0	LH	58.0	57.0	48.0	60.0	R	right	0.191700000048	13988.0
n/a	n/a	h1	37.0	2.0	LH	46.0	58.0	48.0	60.0	L	left	0.272899999857	14034.0
n/a	n/a	h1	37.0	3.0	LH	40.0	48.0	48.0	60.0	R	right	0.351100000143	14082.0
n/a	n/a	h1	37.0	4.0	LH	42.0	54.0	48.0	60.0	X	right	0.384799999952	14136.0
n/a	n/a	h6	38.0	0.0	HL	77.0	45.0	70.0	40.0	L	left	0.301200000048	14213.0
n/a	n/a	h6	38.0	1.0	HL	68.0	29.0	70.0	40.0	L	left	0.234100000143	14281.0
n/a	n/a	h6	38.0	2.0	HL	71.0	27.0	70.0	40.0	L	left	0.228299999952	14352.0
n/a	n/a	h6	38.0	3.0	HL	82.0	35.0	70.0	40.0	R	right	0.2435	14387.0
n/a	n/a	h6	38.0	4.0	HL	64.0	43.0	70.0	40.0	X	left	1.028	14451.0
n/a	n/a	h6	38.0	5.0	HL	56.0	43.0	70.0	40.0	X	left	0.402	14507.0
n/a	n/a	h6	38.0	6.0	HL	73.0	47.0	70.0	40.0	X	right	0.334599999905	14554.0
n/a	n/a	h6	38.0	7.0	HL	80.0	40.0	70.0	40.0	X	right	0.743299999952	14594.0
n/a	n/a	h6	38.0	8.0	HL	71.0	44.0	70.0	40.0	X	left	0.657699999809	14665.0
n/a	n/a	h6	38.0	9.0	HL	83.0	48.0	70.0	40.0	X	left	0.242200000048	14748.0
n/a	n/a	h1	39.0	0.0	HL	39.0	32.0	44.0	40.0	L	left	0.436299999952	14787.0
n/a	n/a	h1	39.0	1.0	HL	36.0	52.0	44.0	40.0	L	left	0.284400000095	14823.0
n/a	n/a	h1	39.0	2.0	HL	39.0	47.0	44.0	40.0	L	left	0.202200000048	14862.0
n/a	n/a	h1	39.0	3.0	HL	49.0	32.0	44.0	40.0	R	right	0.1875	14894.0
n/a	n/a	h1	39.0	4.0	HL	55.0	46.0	44.0	40.0	X	left	0.8935	14949.0
n/a	n/a	h6	40.0	0.0	HL	36.0	38.0	40.0	28.0	L	left	0.234299999952	14985.0
n/a	n/a	h6	40.0	1.0	HL	37.0	40.0	40.0	28.0	L	left	0.234	15022.0
n/a	n/a	h6	40.0	2.0	HL	33.0	23.0	40.0	28.0	R	right	0.217899999857	15045.0
n/a	n/a	h6	40.0	3.0	HL	44.0	27.0	40.0	28.0	R	right	0.250900000095	15072.0
n/a	n/a	h6	40.0	4.0	HL	22.0	36.0	40.0	28.0	X	left	0.551600000143	15094.0
n/a	n/a	h6	40.0	5.0	HL	47.0	30.0	40.0	28.0	X	left	0.422699999809	15141.0
n/a	n/a	h6	40.0	6.0	HL	31.0	16.0	40.0	28.0	X	right	0.926200000048	15157.0
n/a	n/a	h6	40.0	7.0	HL	47.0	34.0	40.0	28.0	X	left	0.502699999809	15204.0
n/a	n/a	h6	40.0	8.0	HL	39.0	20.0	40.0	28.0	X	left	0.250700000048	15243.0
n/a	n/a	h6	40.0	9.0	HL	37.0	36.0	40.0	28.0	X	left	0.217599999905	15280.0
n/a	n/a	h1	41.0	0.0	LH	65.0	58.0	52.0	60.0	L	left	0.505	15345.0
n/a	n/a	h1	41.0	1.0	LH	49.0	64.0	52.0	60.0	L	left	0.286599999905	15394.0
n/a	n/a	h1	41.0	2.0	LH	52.0	73.0	52.0	60.0	R	right	0.252299999952	15467.0
n/a	n/a	h1	41.0	3.0	LH	52.0	64.0	52.0	60.0	R	right	0.318099999905	15531.0
n/a	n/a	h1	41.0	4.0	LH	52.0	62.0	52.0	60.0	X	right	0.618	15593.0
n/a	n/a	h1	42.0	0.0	LH	22.0	75.0	40.0	70.0	R	right	0.284700000048	15668.0
n/a	n/a	h1	42.0	1.0	LH	30.0	65.0	40.0	70.0	R	right	0.2515	15733.0
n/a	n/a	h1	42.0	2.0	LH	40.0	70.0	40.0	70.0	R	right	0.300799999952	15803.0
n/a	n/a	h1	42.0	3.0	LH	43.0	80.0	40.0	70.0	L	left	0.321700000048	15846.0
n/a	n/a	h1	42.0	4.0	LH	44.0	86.0	40.0	70.0	X	left	1.48579999995	15890.0
n/a	n/a	h1	43.0	0.0	LH	32.0	50.0	36.0	40.0	L	left	0.620200000048	15922.0
n/a	n/a	h1	43.0	1.0	LH	39.0	44.0	36.0	40.0	R	right	0.401	15966.0
n/a	n/a	h1	43.0	2.0	LH	27.0	48.0	36.0	40.0	L	left	0.404100000143	15993.0
n/a	n/a	h1	43.0	3.0	LH	44.0	31.0	36.0	40.0	L	left	0.268399999857	16037.0
n/a	n/a	h1	43.0	4.0	LH	42.0	45.0	36.0	40.0	X	right	0.571	16082.0
n/a	n/a	h1	44.0	0.0	HL	58.0	57.0	64.0	60.0	L	left	0.384400000095	16140.0
n/a	n/a	h1	44.0	1.0	HL	68.0	62.0	64.0	60.0	R	right	0.393099999905	16202.0
n/a	n/a	h1	44.0	2.0	HL	61.0	75.0	64.0	60.0	L	left	0.354200000048	16263.0
n/a	n/a	h1	44.0	3.0	HL	44.0	57.0	64.0	60.0	R	right	0.555900000095	16320.0
n/a	n/a	h1	44.0	4.0	HL	65.0	64.0	64.0	60.0	X	right	1.3270999999	16384.0
n/a	n/a	h1	45.0	0.0	HL	60.0	55.0	72.0	60.0	L	left	0.251100000143	16444.0
n/a	n/a	h1	45.0	1.0	HL	69.0	48.0	72.0	60.0	R	right	0.217299999952	16492.0
n/a	n/a	h1	45.0	2.0	HL	62.0	75.0	72.0	60.0	L	left	0.292400000095	16554.0
n/a	n/a	h1	45.0	3.0	HL	69.0	50.0	72.0	60.0	R	right	0.134200000048	16604.0
n/a	n/a	h1	45.0	4.0	HL	75.0	58.0	72.0	60.0	X	left	0.421900000095	16679.0
n/a	n/a	h6	46.0	0.0	LH	72.0	71.0	60.0	64.0	L	left	0.336900000095	16751.0
n/a	n/a	h6	46.0	1.0	LH	61.0	87.0	60.0	64.0	L	left	0.316900000095	16812.0
n/a	n/a	h6	46.0	2.0	LH	49.0	70.0	60.0	64.0	R	right	0.3175	16882.0
n/a	n/a	h6	46.0	3.0	LH	61.0	65.0	60.0	64.0	R	right	0.803400000095	16947.0
n/a	n/a	h6	46.0	4.0	LH	70.0	72.0	60.0	64.0	X	left	0.7535	17017.0
n/a	n/a	h6	46.0	5.0	LH	69.0	65.0	60.0	64.0	X	left	0.422900000095	17086.0
n/a	n/a	h6	46.0	6.0	LH	60.0	52.0	60.0	64.0	X	left	0.968799999952	17146.0
n/a	n/a	h6	46.0	7.0	LH	63.0	61.0	60.0	64.0	X	right	0.5185	17207.0
n/a	n/a	h6	46.0	8.0	LH	58.0	76.0	60.0	64.0	X	right	0.5845	17283.0
n/a	n/a	h6	46.0	9.0	LH	54.0	59.0	60.0	64.0	X	right	0.551700000048	17342.0
n/a	n/a	h1	47.0	0.0	HL	67.0	59.0	68.0	60.0	L	left	0.751200000048	17409.0
n/a	n/a	h1	47.0	1.0	HL	54.0	58.0	68.0	60.0	R	right	0.200700000048	17467.0
n/a	n/a	h1	47.0	2.0	HL	57.0	48.0	68.0	60.0	L	left	0.325200000048	17524.0
n/a	n/a	h1	47.0	3.0	HL	65.0	61.0	68.0	60.0	L	left	0.351600000143	17589.0
n/a	n/a	h1	47.0	4.0	HL	70.0	45.0	68.0	60.0	X	right	0.491	17634.0
n/a	n/a	h1	48.0	0.0	HL	67.0	16.0	60.0	30.0	R	right	0.317799999952	17650.0
n/a	n/a	h1	48.0	1.0	HL	67.0	38.0	60.0	30.0	R	right	0.2845	17688.0
n/a	n/a	h1	48.0	2.0	HL	83.0	27.0	60.0	30.0	R	right	0.285300000191	17715.0
n/a	n/a	h1	48.0	3.0	HL	55.0	34.0	60.0	30.0	L	left	0.234700000048	17770.0
n/a	n/a	h1	48.0	4.0	HL	70.0	22.0	60.0	30.0	X	left	0.801600000143	17840.0
n/a	n/a	h6	49.0	0.0	HL	72.0	45.0	70.0	40.0	L	left	0.2845	17912.0
n/a	n/a	h6	49.0	1.0	HL	68.0	29.0	70.0	40.0	L	left	0.244099999905	17980.0
n/a	n/a	h6	49.0	2.0	HL	64.0	27.0	70.0	40.0	L	left	0.243800000191	18044.0
n/a	n/a	h6	49.0	3.0	HL	82.0	31.0	70.0	40.0	R	right	0.272599999905	18075.0
n/a	n/a	h6	49.0	4.0	HL	77.0	23.0	70.0	40.0	X	right	0.4915	18098.0
n/a	n/a	h6	49.0	5.0	HL	74.0	35.0	70.0	40.0	X	right	0.167800000191	18133.0
n/a	n/a	h6	49.0	6.0	HL	86.0	53.0	70.0	40.0	X	left	0.119100000143	18219.0
n/a	n/a	h6	49.0	7.0	HL	68.0	32.0	70.0	40.0	X	left	0.122799999952	18287.0
n/a	n/a	h6	49.0	8.0	HL	71.0	27.0	70.0	40.0	X	left	0.1025	18358.0
n/a	n/a	h6	49.0	9.0	HL	67.0	43.0	70.0	40.0	X	right	0.5835	18401.0
n/a	n/a	h6	50.0	0.0	HL	89.0	65.0	90.0	60.0	L	left	0.616599999905	18490.0
n/a	n/a	h6	50.0	1.0	HL	88.0	57.0	90.0	60.0	L	left	0.349700000048	18578.0
n/a	n/a	h6	50.0	2.0	HL	84.0	72.0	90.0	60.0	R	right	0.404700000048	18650.0
n/a	n/a	h6	50.0	3.0	HL	76.0	67.0	90.0	60.0	R	right	0.301599999905	18717.0
n/a	n/a	h6	50.0	4.0	HL	96.0	66.0	90.0	60.0	X	left	0.418	18813.0
n/a	n/a	h6	50.0	5.0	HL	99.0	61.0	90.0	60.0	X	left	0.336700000048	18912.0
n/a	n/a	h6	50.0	6.0	HL	84.0	67.0	90.0	60.0	X	left	0.1565	18996.0
n/a	n/a	h6	50.0	7.0	HL	91.0	70.0	90.0	60.0	X	right	0.367299999952	19066.0
n/a	n/a	h6	50.0	8.0	HL	85.0	51.0	90.0	60.0	X	right	0.267100000143	19117.0
n/a	n/a	h6	50.0	9.0	HL	83.0	59.0	90.0	60.0	X	left	0.367099999905	19200.0
n/a	n/a	h6	51.0	0.0	HL	60.0	51.0	60.0	52.0	R	right	0.217900000095	19251.0
n/a	n/a	h6	51.0	1.0	HL	55.0	43.0	60.0	52.0	L	left	0.251399999857	19306.0
n/a	n/a	h6	51.0	2.0	HL	59.0	62.0	60.0	52.0	L	left	0.251199999809	19365.0
n/a	n/a	h6	51.0	3.0	HL	53.0	52.0	60.0	52.0	R	right	0.208400000095	19417.0
n/a	n/a	h6	51.0	4.0	HL	52.0	57.0	60.0	52.0	X	left	0.451400000095	19469.0
n/a	n/a	h6	51.0	5.0	HL	78.0	49.0	60.0	52.0	X	left	0.1985	19547.0
n/a	n/a	h6	51.0	6.0	HL	44.0	61.0	60.0	52.0	X	right	0.184900000095	19608.0
n/a	n/a	h6	51.0	7.0	HL	65.0	44.0	60.0	52.0	X	left	0.5345	19673.0
n/a	n/a	h6	51.0	8.0	HL	60.0	42.0	60.0	52.0	X	right	0.541300000191	19715.0
n/a	n/a	h6	51.0	9.0	HL	59.0	67.0	60.0	52.0	X	left	0.451799999952	19774.0
n/a	n/a	h6	52.0	0.0	LH	40.0	38.0	40.0	48.0	L	left	0.367600000143	19814.0
n/a	n/a	h6	52.0	1.0	LH	42.0	44.0	40.0	48.0	L	left	0.435400000095	19856.0
n/a	n/a	h6	52.0	2.0	LH	60.0	47.0	40.0	48.0	R	right	0.200100000143	19903.0
n/a	n/a	h6	52.0	3.0	LH	37.0	52.0	40.0	48.0	R	right	0.4095	19955.0
n/a	n/a	h6	52.0	4.0	LH	31.0	59.0	40.0	48.0	X	left	0.273200000048	19986.0
n/a	n/a	h6	52.0	5.0	LH	39.0	40.0	40.0	48.0	X	right	0.256	20026.0
n/a	n/a	h6	52.0	6.0	LH	43.0	44.0	40.0	48.0	X	right	0.101300000191	20070.0
n/a	n/a	h6	52.0	7.0	LH	50.0	47.0	40.0	48.0	X	left	0.321899999857	20120.0
n/a	n/a	h6	52.0	8.0	LH	55.0	41.0	40.0	48.0	X	left	0.385300000191	20175.0
n/a	n/a	h6	52.0	9.0	LH	34.0	45.0	40.0	48.0	X	left	0.470700000048	20209.0
n/a	n/a	h6	53.0	0.0	LH	19.0	45.0	30.0	60.0	R	right	0.400099999905	20254.0
n/a	n/a	h6	53.0	1.0	LH	39.0	62.0	30.0	60.0	L	left	0.169	20293.0
n/a	n/a	h6	53.0	2.0	LH	24.0	65.0	30.0	60.0	L	left	0.335600000143	20317.0
n/a	n/a	h6	53.0	3.0	LH	42.0	55.0	30.0	60.0	L	left	0.251	20359.0
n/a	n/a	h6	53.0	4.0	LH	37.0	72.0	30.0	60.0	X	right	0.234600000143	20431.0
n/a	n/a	h6	53.0	5.0	LH	31.0	61.0	30.0	60.0	X	right	0.551800000191	20492.0
n/a	n/a	h6	53.0	6.0	LH	33.0	50.0	30.0	60.0	X	left	0.341	20525.0
n/a	n/a	h6	53.0	7.0	LH	29.0	88.0	30.0	60.0	X	right	0.402	20613.0
n/a	n/a	h6	53.0	8.0	LH	11.0	62.0	30.0	60.0	X	right	0.441400000095	20675.0
n/a	n/a	h6	53.0	9.0	LH	44.0	70.0	30.0	60.0	X	left	0.369299999952	20719.0
n/a	n/a	h6	54.0	0.0	HL	41.0	38.0	40.0	28.0	L	left	0.302	20760.0
n/a	n/a	h6	54.0	1.0	HL	37.0	27.0	40.0	28.0	L	left	0.301199999809	20797.0
n/a	n/a	h6	54.0	2.0	HL	33.0	23.0	40.0	28.0	R	right	0.667700000048	20820.0
n/a	n/a	h6	54.0	3.0	HL	44.0	40.0	40.0	28.0	R	right	0.234700000048	20860.0
n/a	n/a	h6	54.0	4.0	HL	27.0	30.0	40.0	28.0	X	left	0.484399999857	20887.0
n/a	n/a	h6	54.0	5.0	HL	36.0	28.0	40.0	28.0	X	left	0.425299999952	20923.0
n/a	n/a	h6	54.0	6.0	HL	45.0	35.0	40.0	28.0	X	left	0.288799999952	20968.0
n/a	n/a	h6	54.0	7.0	HL	44.0	28.0	40.0	28.0	X	right	0.100599999905	20996.0
n/a	n/a	h6	54.0	8.0	HL	42.0	30.0	40.0	28.0	X	left	0.291899999857	21038.0
n/a	n/a	h6	54.0	9.0	HL	45.0	31.0	40.0	28.0	X	right	0.585799999952	21069.0
n/a	n/a	h1	55.0	0.0	LH	40.0	64.0	40.0	52.0	L	left	0.218299999952	21109.0
n/a	n/a	h1	55.0	1.0	LH	34.0	52.0	40.0	52.0	L	left	0.340700000048	21143.0
n/a	n/a	h1	55.0	2.0	LH	40.0	58.0	40.0	52.0	R	right	0.239700000048	21201.0
n/a	n/a	h1	55.0	3.0	LH	58.0	62.0	40.0	52.0	L	left	0.290600000143	21259.0
n/a	n/a	h1	55.0	4.0	LH	44.0	48.0	40.0	52.0	X	right	0.523099999905	21307.0
n/a	n/a	h6	56.0	0.0	HL	60.0	56.0	60.0	52.0	R	right	0.353399999857	21363.0
n/a	n/a	h6	56.0	1.0	HL	67.0	49.0	60.0	52.0	L	left	0.350900000095	21430.0
n/a	n/a	h6	56.0	2.0	HL	67.0	51.0	60.0	52.0	R	right	0.1845	21481.0
n/a	n/a	h6	56.0	3.0	HL	69.0	59.0	60.0	52.0	R	right	0.359600000143	21540.0
n/a	n/a	h6	56.0	4.0	HL	70.0	78.0	60.0	52.0	X	left	0.468400000095	21610.0
n/a	n/a	h6	56.0	5.0	HL	55.0	45.0	60.0	52.0	X	left	0.3745	21665.0
n/a	n/a	h6	56.0	6.0	HL	75.0	51.0	60.0	52.0	X	left	0.401200000048	21740.0
n/a	n/a	h6	56.0	7.0	HL	66.0	67.0	60.0	52.0	X	right	0.120900000095	21807.0
n/a	n/a	h6	56.0	8.0	HL	61.0	45.0	60.0	52.0	X	left	0.551299999952	21868.0
n/a	n/a	h6	56.0	9.0	HL	60.0	63.0	60.0	52.0	X	right	0.516600000143	21931.0
n/a	n/a	h6	57.0	0.0	HL	39.0	36.0	40.0	36.0	R	right	0.234200000048	21967.0
n/a	n/a	h6	57.0	1.0	HL	31.0	38.0	40.0	36.0	R	right	0.217700000048	22005.0
n/a	n/a	h6	57.0	2.0	HL	46.0	27.0	40.0	36.0	L	left	0.373700000048	22051.0
n/a	n/a	h6	57.0	3.0	HL	35.0	50.0	40.0	36.0	L	left	0.385299999952	22086.0
n/a	n/a	h6	57.0	4.0	HL	46.0	20.0	40.0	36.0	X	right	0.367700000048	22106.0
n/a	n/a	h6	57.0	5.0	HL	45.0	22.0	40.0	36.0	X	right	0.117800000191	22128.0
n/a	n/a	h6	57.0	6.0	HL	31.0	42.0	40.0	36.0	X	left	0.116900000095	22159.0
n/a	n/a	h6	57.0	7.0	HL	40.0	31.0	40.0	36.0	X	right	0.5515	22190.0
n/a	n/a	h6	57.0	8.0	HL	49.0	43.0	40.0	36.0	X	left	0.419599999905	22239.0
n/a	n/a	h6	57.0	9.0	HL	26.0	21.0	40.0	36.0	X	right	0.420700000048	22260.0
n/a	n/a	h1	58.0	0.0	HL	75.0	57.0	64.0	60.0	L	left	0.334900000095	22335.0
n/a	n/a	h1	58.0	1.0	HL	68.0	75.0	64.0	60.0	R	right	0.169899999857	22410.0
n/a	n/a	h1	58.0	2.0	HL	61.0	62.0	64.0	60.0	L	left	0.251	22471.0
n/a	n/a	h1	58.0	3.0	HL	44.0	57.0	64.0	60.0	R	right	0.101399999857	22528.0
n/a	n/a	h1	58.0	4.0	HL	58.0	52.0	64.0	60.0	X	left	0.117700000048	22586.0
n/a	n/a	h6	59.0	0.0	LH	19.0	65.0	30.0	60.0	R	right	0.270400000095	22651.0
n/a	n/a	h6	59.0	1.0	LH	39.0	62.0	30.0	60.0	L	left	0.243199999809	22690.0
n/a	n/a	h6	59.0	2.0	LH	24.0	45.0	30.0	60.0	L	left	0.336	22714.0
n/a	n/a	h6	59.0	3.0	LH	25.0	55.0	30.0	60.0	L	left	0.268	22739.0
n/a	n/a	h6	59.0	4.0	LH	40.0	55.0	30.0	60.0	X	right	0.185899999857	22794.0
n/a	n/a	h6	59.0	5.0	LH	23.0	71.0	30.0	60.0	X	left	0.170799999952	22817.0
n/a	n/a	h6	59.0	6.0	LH	42.0	65.0	30.0	60.0	X	right	0.167699999809	22882.0
n/a	n/a	h6	59.0	7.0	LH	28.0	55.0	30.0	60.0	X	right	0.151199999809	22937.0
n/a	n/a	h6	59.0	8.0	LH	17.0	65.0	30.0	60.0	X	right	0.336199999809	23002.0
n/a	n/a	h6	59.0	9.0	LH	30.0	64.0	30.0	60.0	X	left	0.2845	23032.0
n/a	n/a	h6	60.0	0.0	LH	69.0	62.0	56.0	60.0	R	right	0.3845	23094.0
n/a	n/a	h6	60.0	1.0	LH	54.0	53.0	56.0	60.0	L	left	0.483	23148.0
n/a	n/a	h6	60.0	2.0	LH	57.0	59.0	56.0	60.0	L	left	0.318099999905	23205.0
n/a	n/a	h6	60.0	3.0	LH	62.0	60.0	56.0	60.0	L	left	0.275	23267.0
n/a	n/a	h6	60.0	4.0	LH	57.0	51.0	56.0	60.0	X	left	0.468099999905	23324.0
n/a	n/a	h6	60.0	5.0	LH	58.0	50.0	56.0	60.0	X	left	0.417900000095	23382.0
n/a	n/a	h6	60.0	6.0	LH	65.0	48.0	56.0	60.0	X	left	0.252199999809	23447.0
n/a	n/a	h6	60.0	7.0	LH	64.0	68.0	56.0	60.0	X	right	0.539900000095	23515.0
n/a	n/a	h6	60.0	8.0	LH	55.0	54.0	56.0	60.0	X	right	0.515099999905	23569.0
n/a	n/a	h6	60.0	9.0	LH	44.0	46.0	56.0	60.0	X	left	0.338200000048	23613.0
n/a	n/a	h1	61.0	0.0	HL	54.0	35.0	60.0	40.0	L	left	0.2565	23667.0
n/a	n/a	h1	61.0	1.0	HL	63.0	42.0	60.0	40.0	R	right	0.151	23709.0
n/a	n/a	h1	61.0	2.0	HL	57.0	53.0	60.0	40.0	L	left	0.234100000143	23766.0
n/a	n/a	h1	61.0	3.0	HL	57.0	48.0	60.0	40.0	R	right	0.175799999952	23814.0
n/a	n/a	h1	61.0	4.0	HL	58.0	50.0	60.0	40.0	X	right	0.117599999905	23864.0
n/a	n/a	h6	62.0	0.0	HL	60.0	56.0	60.0	52.0	R	right	0.36	23920.0
n/a	n/a	h6	62.0	1.0	HL	62.0	49.0	60.0	52.0	L	left	0.334600000143	23982.0
n/a	n/a	h6	62.0	2.0	HL	67.0	51.0	60.0	52.0	R	right	0.317900000095	24033.0
n/a	n/a	h6	62.0	3.0	HL	69.0	53.0	60.0	52.0	R	right	0.359399999857	24086.0
n/a	n/a	h6	62.0	4.0	HL	57.0	49.0	60.0	52.0	X	right	0.351	24135.0
n/a	n/a	h6	62.0	5.0	HL	62.0	39.0	60.0	52.0	X	left	1.1854000001	24197.0
n/a	n/a	h6	62.0	6.0	HL	42.0	47.0	60.0	52.0	X	left	0.619	24239.0
n/a	n/a	h6	62.0	7.0	HL	69.0	36.0	60.0	52.0	X	right	0.420400000095	24275.0
n/a	n/a	h6	62.0	8.0	HL	67.0	45.0	60.0	52.0	X	left	0.6035	24342.0
n/a	n/a	h6	62.0	9.0	HL	58.0	56.0	60.0	52.0	X	left	0.0674000000954	24400.0
n/a	n/a	h6	63.0	0.0	LH	65.0	77.0	60.0	80.0	L	left	0.652200000048	24465.0
n/a	n/a	h6	63.0	1.0	LH	60.0	78.0	60.0	80.0	L	left	0.301	24525.0
n/a	n/a	h6	63.0	2.0	LH	58.0	68.0	60.0	80.0	L	left	0.270599999905	24583.0
n/a	n/a	h6	63.0	3.0	LH	57.0	81.0	60.0	80.0	R	right	0.201399999857	24664.0
n/a	n/a	h6	63.0	4.0	LH	64.0	82.0	60.0	80.0	X	right	0.509	24746.0
n/a	n/a	h6	63.0	5.0	LH	53.0	89.0	60.0	80.0	X	right	0.1175	24835.0
n/a	n/a	h6	63.0	6.0	LH	58.0	72.0	60.0	80.0	X	left	0.278800000191	24893.0
n/a	n/a	h6	63.0	7.0	LH	56.0	73.0	60.0	80.0	X	left	0.117299999952	24949.0
n/a	n/a	h6	63.0	8.0	LH	59.0	91.0	60.0	80.0	X	left	0.150700000048	25008.0
n/a	n/a	h6	63.0	9.0	LH	48.0	67.0	60.0	80.0	X	right	0.0340000000001	25075.0
n/a	n/a	h1	64.0	0.0	LH	25.0	38.0	32.0	40.0	L	left	0.234400000095	25100.0
n/a	n/a	h1	64.0	1.0	LH	44.0	57.0	32.0	40.0	L	left	0.200899999857	25144.0
n/a	n/a	h1	64.0	2.0	LH	29.0	47.0	32.0	40.0	R	right	0.218700000048	25191.0
n/a	n/a	h1	64.0	3.0	LH	36.0	31.0	32.0	40.0	L	left	0.218200000048	25227.0
n/a	n/a	h1	64.0	4.0	LH	14.0	23.0	32.0	40.0	X	right	0.101900000095	25250.0
n/a	n/a	h6	65.0	0.0	LH	53.0	39.0	40.0	48.0	R	right	0.250799999952	25289.0
n/a	n/a	h6	65.0	1.0	LH	50.0	55.0	40.0	48.0	R	right	0.251799999952	25344.0
n/a	n/a	h6	65.0	2.0	LH	44.0	56.0	40.0	48.0	L	left	0.422900000095	25388.0
n/a	n/a	h6	65.0	3.0	LH	49.0	50.0	40.0	48.0	R	right	0.351700000048	25438.0
n/a	n/a	h6	65.0	4.0	LH	37.0	38.0	40.0	48.0	X	right	0.504799999952	25476.0
n/a	n/a	h6	65.0	5.0	LH	46.0	28.0	40.0	48.0	X	left	0.601299999952	25522.0
n/a	n/a	h6	65.0	6.0	LH	44.0	58.0	40.0	48.0	X	left	0.268200000048	25566.0
n/a	n/a	h6	65.0	7.0	LH	51.0	64.0	40.0	48.0	X	left	0.351200000048	25617.0
n/a	n/a	h6	65.0	8.0	LH	36.0	56.0	40.0	48.0	X	right	0.867800000191	25673.0
n/a	n/a	h6	65.0	9.0	LH	47.0	42.0	40.0	48.0	X	right	0.551	25715.0
n/a	n/a	h6	66.0	0.0	HL	28.0	15.0	40.0	20.0	L	left	0.191200000048	25743.0
n/a	n/a	h6	66.0	1.0	HL	53.0	16.0	40.0	20.0	L	left	0.224099999905	25796.0
n/a	n/a	h6	66.0	2.0	HL	34.0	28.0	40.0	20.0	L	left	0.234299999952	25830.0
n/a	n/a	h6	66.0	3.0	HL	53.0	21.0	40.0	20.0	R	right	0.217900000095	25851.0
n/a	n/a	h6	66.0	4.0	HL	40.0	24.0	40.0	20.0	X	left	0.318100000143	25891.0
n/a	n/a	h6	66.0	5.0	HL	52.0	24.0	40.0	20.0	X	left	0.351599999905	25943.0
n/a	n/a	h6	66.0	6.0	HL	55.0	16.0	40.0	20.0	X	right	0.451299999952	25959.0
n/a	n/a	h6	66.0	7.0	HL	24.0	24.0	40.0	20.0	X	left	0.686	25983.0
n/a	n/a	h6	66.0	8.0	HL	40.0	23.0	40.0	20.0	X	right	0.599799999952	26006.0
n/a	n/a	h6	66.0	9.0	HL	45.0	28.0	40.0	20.0	X	left	0.467899999857	26051.0
n/a	n/a	h6	67.0	0.0	LH	60.0	79.0	60.0	72.0	R	right	0.267400000095	26130.0
n/a	n/a	h6	67.0	1.0	LH	57.0	66.0	60.0	72.0	R	right	0.284200000048	26196.0
n/a	n/a	h6	67.0	2.0	LH	64.0	65.0	60.0	72.0	L	left	0.334399999857	26260.0
n/a	n/a	h6	67.0	3.0	LH	63.0	69.0	60.0	72.0	R	right	0.387300000191	26329.0
n/a	n/a	h6	67.0	4.0	LH	65.0	75.0	60.0	72.0	X	left	0.351399999857	26394.0
n/a	n/a	h6	67.0	5.0	LH	52.0	77.0	60.0	72.0	X	left	0.168900000095	26446.0
n/a	n/a	h6	67.0	6.0	LH	73.0	86.0	60.0	72.0	X	right	0.170599999905	26532.0
n/a	n/a	h6	67.0	7.0	LH	66.0	80.0	60.0	72.0	X	left	0.734599999905	26598.0
n/a	n/a	h6	67.0	8.0	LH	57.0	73.0	60.0	72.0	X	left	0.185	26655.0
n/a	n/a	h6	67.0	9.0	LH	60.0	75.0	60.0	72.0	X	right	0.119099999905	26730.0
n/a	n/a	h1	68.0	0.0	LH	45.0	56.0	40.0	60.0	R	right	0.283400000095	26786.0
n/a	n/a	h1	68.0	1.0	LH	29.0	52.0	40.0	60.0	R	right	0.2845	26838.0
n/a	n/a	h1	68.0	2.0	LH	47.0	60.0	40.0	60.0	R	right	0.318400000095	26898.0
n/a	n/a	h1	68.0	3.0	LH	36.0	57.0	40.0	60.0	L	left	0.403199999809	26934.0
n/a	n/a	h1	68.0	4.0	LH	41.0	51.0	40.0	60.0	X	left	0.668200000048	26975.0
n/a	n/a	h6	69.0	0.0	LH	25.0	48.0	20.0	40.0	L	left	0.284700000048	27000.0
n/a	n/a	h6	69.0	1.0	LH	20.0	33.0	20.0	40.0	R	right	0.184700000048	27033.0
n/a	n/a	h6	69.0	2.0	LH	8.0	50.0	20.0	40.0	R	right	0.301099999905	27083.0
n/a	n/a	h6	69.0	3.0	LH	14.0	48.0	20.0	40.0	L	left	0.199700000048	27097.0
n/a	n/a	h6	69.0	4.0	LH	22.0	28.0	20.0	40.0	X	right	0.403900000095	27125.0
n/a	n/a	h6	69.0	5.0	LH	24.0	35.0	20.0	40.0	X	right	0.283900000095	27160.0
n/a	n/a	h6	69.0	6.0	LH	22.0	40.0	20.0	40.0	X	left	0.175	27182.0
n/a	n/a	h6	69.0	7.0	LH	27.0	49.0	20.0	40.0	X	left	0.0920000000001	27209.0
n/a	n/a	h6	69.0	8.0	LH	31.0	37.0	20.0	40.0	X	right	0.415900000095	27246.0
n/a	n/a	h6	69.0	9.0	LH	26.0	57.0	20.0	40.0	X	left	0.117299999952	27272.0
n/a	n/a	h1	70.0	0.0	LH	32.0	76.0	40.0	60.0	L	left	0.286799999952	27304.0
n/a	n/a	h1	70.0	1.0	LH	37.0	65.0	40.0	60.0	R	right	0.251199999809	27369.0
n/a	n/a	h1	70.0	2.0	LH	37.0	68.0	40.0	60.0	L	left	0.233399999857	27406.0
n/a	n/a	h1	70.0	3.0	LH	46.0	55.0	40.0	60.0	R	right	0.267700000048	27461.0
n/a	n/a	h1	70.0	4.0	LH	31.0	69.0	40.0	60.0	X	left	0.234800000191	27492.0
n/a	n/a	h1	71.0	0.0	LH	48.0	67.0	40.0	70.0	R	right	0.233899999857	27559.0
n/a	n/a	h1	71.0	1.0	LH	31.0	62.0	40.0	70.0	L	left	0.406200000048	27590.0
n/a	n/a	h1	71.0	2.0	LH	39.0	65.0	40.0	70.0	R	right	0.238600000143	27655.0
n/a	n/a	h1	71.0	3.0	LH	50.0	62.0	40.0	70.0	L	left	0.254200000048	27705.0
n/a	n/a	h1	71.0	4.0	LH	47.0	64.0	40.0	70.0	X	right	0.426400000095	27769.0
n/a	n/a	h1	72.0	0.0	LH	32.0	50.0	36.0	40.0	L	left	0.234	27801.0
n/a	n/a	h1	72.0	1.0	LH	39.0	48.0	36.0	40.0	R	right	0.292299999952	27849.0
n/a	n/a	h1	72.0	2.0	LH	32.0	44.0	36.0	40.0	L	left	0.284700000048	27881.0
n/a	n/a	h1	72.0	3.0	LH	44.0	31.0	36.0	40.0	L	left	0.317700000048	27925.0
n/a	n/a	h1	72.0	4.0	LH	27.0	33.0	36.0	40.0	X	right	0.251299999952	27958.0
n/a	n/a	h1	73.0	0.0	LH	29.0	30.0	28.0	40.0	R	right	0.201599999905	27988.0
n/a	n/a	h1	73.0	1.0	LH	27.0	39.0	28.0	40.0	L	left	0.267899999857	28015.0
n/a	n/a	h1	73.0	2.0	LH	25.0	54.0	28.0	40.0	R	right	0.234599999905	28069.0
n/a	n/a	h1	73.0	3.0	LH	31.0	44.0	28.0	40.0	L	left	0.217600000143	28100.0
n/a	n/a	h1	73.0	4.0	LH	26.0	45.0	28.0	40.0	X	right	0.406099999904	28145.0
n/a	n/a	h1	74.0	0.0	LH	46.0	75.0	48.0	60.0	R	right	0.225799999952	28220.0
n/a	n/a	h1	74.0	1.0	LH	58.0	48.0	48.0	60.0	R	right	0.257600000143	28268.0
n/a	n/a	h1	74.0	2.0	LH	51.0	58.0	48.0	60.0	L	left	0.268300000191	28319.0
n/a	n/a	h1	74.0	3.0	LH	40.0	57.0	48.0	60.0	R	right	0.251199999809	28376.0
n/a	n/a	h1	74.0	4.0	LH	29.0	51.0	48.0	60.0	X	left	0.506200000048	28405.0
n/a	n/a	h1	75.0	0.0	LH	58.0	43.0	56.0	60.0	L	left	0.305799999952	28463.0
n/a	n/a	h1	75.0	1.0	LH	33.0	67.0	56.0	60.0	R	right	0.318699999809	28530.0
n/a	n/a	h1	75.0	2.0	LH	55.0	59.0	56.0	60.0	L	left	0.441099999905	28585.0
n/a	n/a	h1	75.0	3.0	LH	42.0	64.0	56.0	60.0	R	right	0.352199999809	28649.0
n/a	n/a	h1	75.0	4.0	LH	66.0	59.0	56.0	60.0	X	right	0.250600000143	28708.0
n/a	n/a	h6	76.0	0.0	HL	55.0	61.0	60.0	52.0	R	right	0.434300000191	28769.0
n/a	n/a	h6	76.0	1.0	HL	60.0	43.0	60.0	52.0	L	left	0.201	28829.0
n/a	n/a	h6	76.0	2.0	HL	65.0	62.0	60.0	52.0	L	left	0.338	28894.0
n/a	n/a	h6	76.0	3.0	HL	53.0	41.0	60.0	52.0	R	right	0.175	28935.0
n/a	n/a	h6	76.0	4.0	HL	61.0	57.0	60.0	52.0	X	left	0.935200000048	28996.0
n/a	n/a	h6	76.0	5.0	HL	59.0	67.0	60.0	52.0	X	left	0.1345	29055.0
n/a	n/a	h6	76.0	6.0	HL	42.0	45.0	60.0	52.0	X	right	0.167900000095	29100.0
n/a	n/a	h6	76.0	7.0	HL	60.0	45.0	60.0	52.0	X	right	0.375599999905	29145.0
n/a	n/a	h6	76.0	8.0	HL	64.0	53.0	60.0	52.0	X	left	0.150299999952	29209.0
n/a	n/a	h6	76.0	9.0	HL	56.0	38.0	60.0	52.0	X	right	0.257600000143	29247.0
n/a	n/a	h1	77.0	0.0	LH	52.0	73.0	52.0	60.0	L	left	1.552	29299.0
n/a	n/a	h1	77.0	1.0	LH	49.0	64.0	52.0	60.0	L	left	0.434700000048	29348.0
n/a	n/a	h1	77.0	2.0	LH	65.0	58.0	52.0	60.0	R	right	0.2515	29406.0
n/a	n/a	h1	77.0	3.0	LH	52.0	61.0	52.0	60.0	R	right	0.2575	29467.0
n/a	n/a	h1	77.0	4.0	LH	57.0	64.0	52.0	60.0	X	left	0.352	29524.0
n/a	n/a	h6	78.0	0.0	LH	64.0	66.0	60.0	72.0	R	right	0.236	29590.0
n/a	n/a	h6	78.0	1.0	LH	57.0	79.0	60.0	72.0	R	right	0.2025	29669.0
n/a	n/a	h6	78.0	2.0	LH	60.0	65.0	60.0	72.0	L	left	0.203200000048	29729.0
n/a	n/a	h6	78.0	3.0	LH	63.0	63.0	60.0	72.0	R	right	0.183900000095	29792.0
n/a	n/a	h6	78.0	4.0	LH	67.0	90.0	60.0	72.0	X	left	0.449900000095	29859.0
n/a	n/a	h6	78.0	5.0	LH	56.0	69.0	60.0	72.0	X	left	0.101	29915.0
n/a	n/a	h6	78.0	6.0	LH	53.0	64.0	60.0	72.0	X	left	0.301099999905	29968.0
n/a	n/a	h6	78.0	7.0	LH	65.0	72.0	60.0	72.0	X	right	0.225799999952	30040.0
n/a	n/a	h6	78.0	8.0	LH	54.0	66.0	60.0	72.0	X	right	0.273100000143	30106.0
n/a	n/a	h6	78.0	9.0	LH	63.0	62.0	60.0	72.0	X	left	0.239200000048	30169.0
n/a	n/a	h1	79.0	0.0	LH	36.0	57.0	40.0	60.0	R	right	0.385299999952	30226.0
n/a	n/a	h1	79.0	1.0	LH	29.0	52.0	40.0	60.0	R	right	0.267299999952	30278.0
n/a	n/a	h1	79.0	2.0	LH	47.0	60.0	40.0	60.0	R	right	0.284700000048	30338.0
n/a	n/a	h1	79.0	3.0	LH	45.0	56.0	40.0	60.0	L	left	0.217700000048	30383.0
n/a	n/a	h1	79.0	4.0	LH	31.0	50.0	40.0	60.0	X	left	0.276399999857	30414.0
