onset	duration	trial_type	trial_number	bandit_num	mean_type	left_reward	right_reward	left_mean	right_mean	force_pos	response	response_time	points
n/a	n/a	h1	0.0	0.0	LH	40.0	64.0	40.0	52.0	L	left	2.59010000038	40.0
n/a	n/a	h1	0.0	1.0	LH	44.0	48.0	40.0	52.0	L	left	0.406900000095	84.0
n/a	n/a	h1	0.0	2.0	LH	58.0	52.0	40.0	52.0	R	right	0.334699999809	136.0
n/a	n/a	h1	0.0	3.0	LH	40.0	62.0	40.0	52.0	L	left	0.372800000191	176.0
n/a	n/a	h1	0.0	4.0	LH	52.0	40.0	40.0	52.0	X	left	1.0515999999	228.0
n/a	n/a	h6	1.0	0.0	LH	58.0	58.0	60.0	64.0	R	right	0.432599999905	286.0
n/a	n/a	h6	1.0	1.0	LH	59.0	60.0	60.0	64.0	L	left	0.185700000286	345.0
n/a	n/a	h6	1.0	2.0	LH	61.0	64.0	60.0	64.0	R	right	0.173199999809	409.0
n/a	n/a	h6	1.0	3.0	LH	55.0	63.0	60.0	64.0	R	right	0.267400000095	472.0
n/a	n/a	h6	1.0	4.0	LH	69.0	69.0	60.0	64.0	X	right	0.534800000191	541.0
n/a	n/a	h6	1.0	5.0	LH	58.0	77.0	60.0	64.0	X	right	0.500300000191	618.0
n/a	n/a	h6	1.0	6.0	LH	51.0	47.0	60.0	64.0	X	right	0.4175	665.0
n/a	n/a	h6	1.0	7.0	LH	52.0	56.0	60.0	64.0	X	right	0.767799999714	721.0
n/a	n/a	h6	1.0	8.0	LH	62.0	56.0	60.0	64.0	X	right	0.400900000095	777.0
n/a	n/a	h6	1.0	9.0	LH	61.0	72.0	60.0	64.0	X	right	0.751	849.0
n/a	n/a	h1	2.0	0.0	LH	48.0	67.0	40.0	70.0	R	right	1.00169999981	916.0
n/a	n/a	h1	2.0	1.0	LH	47.0	62.0	40.0	70.0	L	left	0.367800000191	963.0
n/a	n/a	h1	2.0	2.0	LH	39.0	62.0	40.0	70.0	R	right	0.568200000286	1025.0
n/a	n/a	h1	2.0	3.0	LH	35.0	65.0	40.0	70.0	L	left	0.3345	1060.0
n/a	n/a	h1	2.0	4.0	LH	50.0	67.0	40.0	70.0	X	right	0.534099999905	1127.0
n/a	n/a	h1	3.0	0.0	LH	31.0	44.0	28.0	40.0	R	right	0.372599999905	1171.0
n/a	n/a	h1	3.0	1.0	LH	27.0	54.0	28.0	40.0	L	left	0.284400000095	1198.0
n/a	n/a	h1	3.0	2.0	LH	25.0	39.0	28.0	40.0	R	right	0.434699999809	1237.0
n/a	n/a	h1	3.0	3.0	LH	29.0	30.0	28.0	40.0	L	left	0.317700000286	1266.0
n/a	n/a	h1	3.0	4.0	LH	29.0	47.0	28.0	40.0	X	right	0.682199999809	1313.0
n/a	n/a	h1	4.0	0.0	HL	67.0	22.0	60.0	30.0	R	right	0.384199999809	1335.0
n/a	n/a	h1	4.0	1.0	HL	55.0	38.0	60.0	30.0	R	right	0.400900000095	1373.0
n/a	n/a	h1	4.0	2.0	HL	83.0	34.0	60.0	30.0	R	right	0.400900000095	1407.0
n/a	n/a	h1	4.0	3.0	HL	67.0	27.0	60.0	30.0	L	left	0.789900000095	1474.0
n/a	n/a	h1	4.0	4.0	HL	64.0	30.0	60.0	30.0	X	left	0.684400000095	1538.0
n/a	n/a	h1	5.0	0.0	HL	75.0	55.0	72.0	60.0	L	left	0.413100000381	1613.0
n/a	n/a	h1	5.0	1.0	HL	62.0	75.0	72.0	60.0	R	right	0.334599999905	1688.0
n/a	n/a	h1	5.0	2.0	HL	69.0	58.0	72.0	60.0	L	left	0.484800000191	1757.0
n/a	n/a	h1	5.0	3.0	HL	69.0	50.0	72.0	60.0	R	right	1.1840999999	1807.0
n/a	n/a	h1	5.0	4.0	HL	81.0	50.0	72.0	60.0	X	left	0.8665	1888.0
n/a	n/a	h1	6.0	0.0	HL	62.0	66.0	68.0	60.0	R	right	0.367299999714	1954.0
n/a	n/a	h1	6.0	1.0	HL	76.0	44.0	68.0	60.0	L	left	0.233400000095	2030.0
n/a	n/a	h1	6.0	2.0	HL	60.0	51.0	68.0	60.0	L	left	0.392599999905	2090.0
n/a	n/a	h1	6.0	3.0	HL	57.0	54.0	68.0	60.0	R	right	0.284199999809	2144.0
n/a	n/a	h1	6.0	4.0	HL	63.0	47.0	68.0	60.0	X	left	1.48519999981	2207.0
n/a	n/a	h1	7.0	0.0	HL	39.0	32.0	44.0	40.0	L	left	0.450400000095	2246.0
n/a	n/a	h1	7.0	1.0	HL	49.0	52.0	44.0	40.0	L	left	0.245300000191	2295.0
n/a	n/a	h1	7.0	2.0	HL	39.0	32.0	44.0	40.0	L	left	0.333599999905	2334.0
n/a	n/a	h1	7.0	3.0	HL	36.0	47.0	44.0	40.0	R	right	0.301699999809	2381.0
n/a	n/a	h1	7.0	4.0	HL	39.0	37.0	44.0	40.0	X	right	0.401900000095	2418.0
n/a	n/a	h6	8.0	0.0	HL	96.0	65.0	90.0	60.0	L	left	0.334400000095	2514.0
n/a	n/a	h6	8.0	1.0	HL	88.0	57.0	90.0	60.0	L	left	0.334200000286	2602.0
n/a	n/a	h6	8.0	2.0	HL	84.0	59.0	90.0	60.0	R	right	0.351100000381	2661.0
n/a	n/a	h6	8.0	3.0	HL	76.0	67.0	90.0	60.0	R	right	0.499900000095	2728.0
n/a	n/a	h6	8.0	4.0	HL	99.0	71.0	90.0	60.0	X	left	0.368299999714	2827.0
n/a	n/a	h6	8.0	5.0	HL	92.0	41.0	90.0	60.0	X	left	0.482900000095	2919.0
n/a	n/a	h6	8.0	6.0	HL	81.0	65.0	90.0	60.0	X	left	0.265099999905	3000.0
n/a	n/a	h6	8.0	7.0	HL	95.0	52.0	90.0	60.0	X	left	0.716300000191	3095.0
n/a	n/a	h6	8.0	8.0	HL	90.0	70.0	90.0	60.0	X	left	0.568400000095	3185.0
n/a	n/a	h6	8.0	9.0	HL	99.0	56.0	90.0	60.0	X	left	0.350400000095	3284.0
n/a	n/a	h6	9.0	0.0	HL	39.0	36.0	40.0	36.0	R	right	0.367099999905	3320.0
n/a	n/a	h6	9.0	1.0	HL	31.0	21.0	40.0	36.0	R	right	0.358099999905	3341.0
n/a	n/a	h6	9.0	2.0	HL	46.0	27.0	40.0	36.0	L	left	0.300600000381	3387.0
n/a	n/a	h6	9.0	3.0	HL	26.0	50.0	40.0	36.0	L	left	0.351100000381	3413.0
n/a	n/a	h6	9.0	4.0	HL	41.0	28.0	40.0	36.0	X	right	1.70110000038	3441.0
n/a	n/a	h6	9.0	5.0	HL	35.0	37.0	40.0	36.0	X	right	0.736400000095	3478.0
n/a	n/a	h6	9.0	6.0	HL	36.0	38.0	40.0	36.0	X	right	0.387099999905	3516.0
n/a	n/a	h6	9.0	7.0	HL	46.0	22.0	40.0	36.0	X	left	0.984099999905	3562.0
n/a	n/a	h6	9.0	8.0	HL	35.0	32.0	40.0	36.0	X	left	0.517399999619	3597.0
n/a	n/a	h6	9.0	9.0	HL	37.0	30.0	40.0	36.0	X	left	0.900699999809	3634.0
n/a	n/a	h1	10.0	0.0	HL	70.0	46.0	60.0	40.0	R	right	0.365199999809	3680.0
n/a	n/a	h1	10.0	1.0	HL	54.0	36.0	60.0	40.0	R	right	0.29	3716.0
n/a	n/a	h1	10.0	2.0	HL	46.0	26.0	60.0	40.0	R	right	0.317099999905	3742.0
n/a	n/a	h1	10.0	3.0	HL	68.0	32.0	60.0	40.0	L	left	0.551099999905	3810.0
n/a	n/a	h1	10.0	4.0	HL	61.0	46.0	60.0	40.0	X	left	0.885099999905	3871.0
n/a	n/a	h1	11.0	0.0	HL	30.0	11.0	40.0	10.0	R	right	0.302	3882.0
n/a	n/a	h1	11.0	1.0	HL	39.0	7.0	40.0	10.0	L	left	0.3005	3921.0
n/a	n/a	h1	11.0	2.0	HL	45.0	1.0	40.0	10.0	R	right	0.366800000191	3922.0
n/a	n/a	h1	11.0	3.0	HL	34.0	9.0	40.0	10.0	L	left	0.3175	3956.0
n/a	n/a	h1	11.0	4.0	HL	33.0	19.0	40.0	10.0	X	right	0.917599999905	3975.0
n/a	n/a	h6	12.0	0.0	LH	27.0	80.0	30.0	60.0	R	right	0.251	4055.0
n/a	n/a	h6	12.0	1.0	LH	40.0	61.0	30.0	60.0	R	right	0.300300000191	4116.0
n/a	n/a	h6	12.0	2.0	LH	20.0	58.0	30.0	60.0	L	left	0.351	4136.0
n/a	n/a	h6	12.0	3.0	LH	25.0	65.0	30.0	60.0	L	left	0.368599999905	4161.0
n/a	n/a	h6	12.0	4.0	LH	34.0	60.0	30.0	60.0	X	right	0.317699999809	4221.0
n/a	n/a	h6	12.0	5.0	LH	33.0	53.0	30.0	60.0	X	right	0.517099999905	4274.0
n/a	n/a	h6	12.0	6.0	LH	33.0	73.0	30.0	60.0	X	right	0.2185	4347.0
n/a	n/a	h6	12.0	7.0	LH	18.0	45.0	30.0	60.0	X	right	0.335699999809	4392.0
n/a	n/a	h6	12.0	8.0	LH	37.0	68.0	30.0	60.0	X	right	0.875400000095	4460.0
n/a	n/a	h6	12.0	9.0	LH	33.0	60.0	30.0	60.0	X	right	0.884	4520.0
n/a	n/a	h6	13.0	0.0	LH	58.0	58.0	60.0	64.0	R	right	0.434299999714	4578.0
n/a	n/a	h6	13.0	1.0	LH	59.0	60.0	60.0	64.0	L	left	0.499900000095	4637.0
n/a	n/a	h6	13.0	2.0	LH	61.0	64.0	60.0	64.0	R	right	0.305199999809	4701.0
n/a	n/a	h6	13.0	3.0	LH	55.0	61.0	60.0	64.0	R	right	0.358799999714	4762.0
n/a	n/a	h6	13.0	4.0	LH	73.0	70.0	60.0	64.0	X	right	0.715	4832.0
n/a	n/a	h6	13.0	5.0	LH	69.0	59.0	60.0	64.0	X	right	0.384099999905	4891.0
n/a	n/a	h6	13.0	6.0	LH	58.0	75.0	60.0	64.0	X	right	0.734800000191	4966.0
n/a	n/a	h6	13.0	7.0	LH	61.0	68.0	60.0	64.0	X	right	0.800700000286	5034.0
n/a	n/a	h6	13.0	8.0	LH	58.0	56.0	60.0	64.0	X	right	0.401400000095	5090.0
n/a	n/a	h6	13.0	9.0	LH	62.0	79.0	60.0	64.0	X	right	0.891799999714	5169.0
n/a	n/a	h6	14.0	0.0	LH	44.0	39.0	40.0	48.0	R	right	0.3005	5208.0
n/a	n/a	h6	14.0	1.0	LH	50.0	55.0	40.0	48.0	R	right	0.418199999809	5263.0
n/a	n/a	h6	14.0	2.0	LH	53.0	56.0	40.0	48.0	L	left	0.250200000286	5316.0
n/a	n/a	h6	14.0	3.0	LH	49.0	58.0	40.0	48.0	R	right	0.318300000191	5374.0
n/a	n/a	h6	14.0	4.0	LH	40.0	44.0	40.0	48.0	X	right	0.318200000286	5418.0
n/a	n/a	h6	14.0	5.0	LH	43.0	57.0	40.0	48.0	X	right	0.516599999905	5475.0
n/a	n/a	h6	14.0	6.0	LH	39.0	43.0	40.0	48.0	X	right	0.367199999809	5518.0
n/a	n/a	h6	14.0	7.0	LH	43.0	56.0	40.0	48.0	X	right	1.1	5574.0
n/a	n/a	h6	14.0	8.0	LH	23.0	56.0	40.0	48.0	X	right	0.701	5630.0
n/a	n/a	h6	14.0	9.0	LH	42.0	49.0	40.0	48.0	X	right	0.518099999905	5679.0
n/a	n/a	h1	15.0	0.0	HL	65.0	59.0	68.0	60.0	L	left	0.417299999714	5744.0
n/a	n/a	h1	15.0	1.0	HL	57.0	61.0	68.0	60.0	R	right	0.384	5805.0
n/a	n/a	h1	15.0	2.0	HL	54.0	48.0	68.0	60.0	L	left	0.315700000286	5859.0
n/a	n/a	h1	15.0	3.0	HL	70.0	58.0	68.0	60.0	L	left	0.466400000095	5929.0
n/a	n/a	h1	15.0	4.0	HL	69.0	51.0	68.0	60.0	X	left	0.466699999809	5998.0
n/a	n/a	h6	16.0	0.0	LH	72.0	71.0	60.0	64.0	L	left	0.417399999619	6070.0
n/a	n/a	h6	16.0	1.0	LH	65.0	87.0	60.0	64.0	L	left	0.284400000095	6135.0
n/a	n/a	h6	16.0	2.0	LH	61.0	70.0	60.0	64.0	R	right	0.301700000286	6205.0
n/a	n/a	h6	16.0	3.0	LH	61.0	76.0	60.0	64.0	R	right	0.417699999809	6281.0
n/a	n/a	h6	16.0	4.0	LH	71.0	66.0	60.0	64.0	X	right	1.08480000019	6347.0
n/a	n/a	h6	16.0	5.0	LH	49.0	59.0	60.0	64.0	X	right	0.334	6406.0
n/a	n/a	h6	16.0	6.0	LH	65.0	50.0	60.0	64.0	X	right	0.518800000191	6456.0
n/a	n/a	h6	16.0	7.0	LH	56.0	76.0	60.0	64.0	X	right	0.416900000095	6532.0
n/a	n/a	h6	16.0	8.0	LH	58.0	59.0	60.0	64.0	X	right	0.618399999619	6591.0
n/a	n/a	h6	16.0	9.0	LH	71.0	64.0	60.0	64.0	X	right	0.601	6655.0
n/a	n/a	h6	17.0	0.0	LH	43.0	58.0	40.0	52.0	L	left	0.551099999905	6698.0
n/a	n/a	h6	17.0	1.0	LH	32.0	39.0	40.0	52.0	R	right	0.468099999905	6737.0
n/a	n/a	h6	17.0	2.0	LH	45.0	53.0	40.0	52.0	L	left	0.385100000381	6782.0
n/a	n/a	h6	17.0	3.0	LH	62.0	60.0	40.0	52.0	R	right	0.387	6842.0
n/a	n/a	h6	17.0	4.0	LH	32.0	54.0	40.0	52.0	X	right	0.451900000095	6896.0
n/a	n/a	h6	17.0	5.0	LH	52.0	51.0	40.0	52.0	X	right	0.436699999809	6947.0
n/a	n/a	h6	17.0	6.0	LH	46.0	54.0	40.0	52.0	X	right	0.334399999619	7001.0
n/a	n/a	h6	17.0	7.0	LH	55.0	58.0	40.0	52.0	X	right	0.400400000095	7059.0
n/a	n/a	h6	17.0	8.0	LH	47.0	61.0	40.0	52.0	X	right	1.10119999981	7120.0
n/a	n/a	h6	17.0	9.0	LH	48.0	45.0	40.0	52.0	X	right	0.4515	7165.0
n/a	n/a	h6	18.0	0.0	HL	28.0	15.0	40.0	20.0	L	left	0.517400000095	7193.0
n/a	n/a	h6	18.0	1.0	HL	53.0	16.0	40.0	20.0	L	left	0.317199999809	7246.0
n/a	n/a	h6	18.0	2.0	HL	55.0	28.0	40.0	20.0	L	left	0.384799999714	7301.0
n/a	n/a	h6	18.0	3.0	HL	53.0	20.0	40.0	20.0	R	right	0.519300000191	7321.0
n/a	n/a	h6	18.0	4.0	HL	53.0	3.0	40.0	20.0	X	left	0.349699999809	7374.0
n/a	n/a	h6	18.0	5.0	HL	40.0	15.0	40.0	20.0	X	left	0.367099999905	7414.0
n/a	n/a	h6	18.0	6.0	HL	45.0	4.0	40.0	20.0	X	left	0.867100000381	7459.0
n/a	n/a	h6	18.0	7.0	HL	41.0	28.0	40.0	20.0	X	left	0.3715	7500.0
n/a	n/a	h6	18.0	8.0	HL	43.0	25.0	40.0	20.0	X	left	0.884	7543.0
n/a	n/a	h6	18.0	9.0	HL	47.0	26.0	40.0	20.0	X	left	1.5844000001	7590.0
n/a	n/a	h1	19.0	0.0	LH	66.0	43.0	56.0	60.0	L	left	0.608199999809	7656.0
n/a	n/a	h1	19.0	1.0	LH	33.0	67.0	56.0	60.0	R	right	0.450599999905	7723.0
n/a	n/a	h1	19.0	2.0	LH	42.0	59.0	56.0	60.0	L	left	0.267599999905	7765.0
n/a	n/a	h1	19.0	3.0	LH	55.0	64.0	56.0	60.0	R	right	1.15170000029	7829.0
n/a	n/a	h1	19.0	4.0	LH	47.0	58.0	56.0	60.0	X	right	1.21869999981	7887.0
n/a	n/a	h1	20.0	0.0	LH	25.0	23.0	32.0	40.0	L	left	0.501899999619	7912.0
n/a	n/a	h1	20.0	1.0	LH	29.0	57.0	32.0	40.0	L	left	0.322599999905	7941.0
n/a	n/a	h1	20.0	2.0	LH	44.0	38.0	32.0	40.0	R	right	0.235199999809	7979.0
n/a	n/a	h1	20.0	3.0	LH	36.0	31.0	32.0	40.0	L	left	0.266599999905	8015.0
n/a	n/a	h1	20.0	4.0	LH	39.0	48.0	32.0	40.0	X	left	0.433099999905	8054.0
n/a	n/a	h6	21.0	0.0	HL	43.0	35.0	40.0	28.0	R	right	0.258	8089.0
n/a	n/a	h6	21.0	1.0	HL	31.0	21.0	40.0	28.0	R	right	0.235	8110.0
n/a	n/a	h6	21.0	2.0	HL	40.0	28.0	40.0	28.0	R	right	0.284300000191	8138.0
n/a	n/a	h6	21.0	3.0	HL	36.0	23.0	40.0	28.0	L	left	0.3365	8174.0
n/a	n/a	h6	21.0	4.0	HL	40.0	27.0	40.0	28.0	X	right	1.03429999971	8201.0
n/a	n/a	h6	21.0	5.0	HL	46.0	20.0	40.0	28.0	X	left	1.1505999999	8247.0
n/a	n/a	h6	21.0	6.0	HL	50.0	21.0	40.0	28.0	X	left	0.407400000095	8297.0
n/a	n/a	h6	21.0	7.0	HL	41.0	37.0	40.0	28.0	X	left	0.305099999905	8338.0
n/a	n/a	h6	21.0	8.0	HL	44.0	19.0	40.0	28.0	X	left	0.3045	8382.0
n/a	n/a	h6	21.0	9.0	HL	37.0	25.0	40.0	28.0	X	left	1.7175	8419.0
n/a	n/a	h1	22.0	0.0	LH	32.0	76.0	40.0	60.0	L	left	0.285799999714	8451.0
n/a	n/a	h1	22.0	1.0	LH	37.0	65.0	40.0	60.0	R	right	0.318299999714	8516.0
n/a	n/a	h1	22.0	2.0	LH	46.0	68.0	40.0	60.0	L	left	0.218	8562.0
n/a	n/a	h1	22.0	3.0	LH	37.0	69.0	40.0	60.0	R	right	0.2695	8631.0
n/a	n/a	h1	22.0	4.0	LH	40.0	53.0	40.0	60.0	X	right	0.318200000286	8684.0
n/a	n/a	h6	23.0	0.0	HL	49.0	36.0	60.0	40.0	L	left	0.168400000095	8733.0
n/a	n/a	h6	23.0	1.0	HL	68.0	43.0	60.0	40.0	R	right	0.299	8776.0
n/a	n/a	h6	23.0	2.0	HL	55.0	40.0	60.0	40.0	L	left	0.202199999809	8831.0
n/a	n/a	h6	23.0	3.0	HL	67.0	41.0	60.0	40.0	R	right	0.299699999809	8872.0
n/a	n/a	h6	23.0	4.0	HL	49.0	34.0	60.0	40.0	X	left	0.801800000191	8921.0
n/a	n/a	h6	23.0	5.0	HL	57.0	35.0	60.0	40.0	X	left	0.469	8978.0
n/a	n/a	h6	23.0	6.0	HL	55.0	50.0	60.0	40.0	X	left	0.351300000191	9033.0
n/a	n/a	h6	23.0	7.0	HL	54.0	28.0	60.0	40.0	X	left	0.768099999905	9087.0
n/a	n/a	h6	23.0	8.0	HL	66.0	35.0	60.0	40.0	X	left	0.406	9153.0
n/a	n/a	h6	23.0	9.0	HL	54.0	40.0	60.0	40.0	X	left	0.585	9207.0
n/a	n/a	h6	24.0	0.0	LH	40.0	38.0	40.0	48.0	L	left	0.399200000286	9247.0
n/a	n/a	h6	24.0	1.0	LH	37.0	44.0	40.0	48.0	L	left	0.269300000191	9284.0
n/a	n/a	h6	24.0	2.0	LH	60.0	44.0	40.0	48.0	R	right	0.286200000286	9328.0
n/a	n/a	h6	24.0	3.0	LH	42.0	52.0	40.0	48.0	R	right	0.367900000095	9380.0
n/a	n/a	h6	24.0	4.0	LH	52.0	55.0	40.0	48.0	X	right	2.0029000001	9435.0
n/a	n/a	h6	24.0	5.0	LH	46.0	51.0	40.0	48.0	X	right	0.407599999905	9486.0
n/a	n/a	h6	24.0	6.0	LH	50.0	51.0	40.0	48.0	X	right	0.4845	9537.0
n/a	n/a	h6	24.0	7.0	LH	47.0	34.0	40.0	48.0	X	right	0.334900000095	9571.0
n/a	n/a	h6	24.0	8.0	LH	30.0	49.0	40.0	48.0	X	right	1.50269999981	9620.0
n/a	n/a	h6	24.0	9.0	LH	29.0	53.0	40.0	48.0	X	left	1.63520000029	9649.0
n/a	n/a	h6	25.0	0.0	LH	25.0	48.0	20.0	40.0	L	left	0.2395	9674.0
n/a	n/a	h6	25.0	1.0	LH	20.0	48.0	20.0	40.0	R	right	0.334	9722.0
n/a	n/a	h6	25.0	2.0	LH	8.0	28.0	20.0	40.0	R	right	0.400400000095	9750.0
n/a	n/a	h6	25.0	3.0	LH	22.0	33.0	20.0	40.0	L	left	0.337200000286	9772.0
n/a	n/a	h6	25.0	4.0	LH	29.0	28.0	20.0	40.0	X	right	1.31619999981	9800.0
n/a	n/a	h6	25.0	5.0	LH	16.0	39.0	20.0	40.0	X	right	0.817199999809	9839.0
n/a	n/a	h6	25.0	6.0	LH	41.0	51.0	20.0	40.0	X	right	0.385699999809	9890.0
n/a	n/a	h6	25.0	7.0	LH	22.0	35.0	20.0	40.0	X	right	0.617400000095	9925.0
n/a	n/a	h6	25.0	8.0	LH	30.0	50.0	20.0	40.0	X	right	0.686400000095	9975.0
n/a	n/a	h6	25.0	9.0	LH	14.0	34.0	20.0	40.0	X	right	0.9575	10009.0
n/a	n/a	h6	26.0	0.0	LH	69.0	60.0	56.0	60.0	R	right	0.351300000191	10069.0
n/a	n/a	h6	26.0	1.0	LH	55.0	53.0	56.0	60.0	L	left	0.215700000286	10124.0
n/a	n/a	h6	26.0	2.0	LH	57.0	59.0	56.0	60.0	L	left	0.2335	10181.0
n/a	n/a	h6	26.0	3.0	LH	62.0	46.0	56.0	60.0	L	left	0.601099999905	10243.0
n/a	n/a	h6	26.0	4.0	LH	50.0	63.0	56.0	60.0	X	left	0.350599999905	10293.0
n/a	n/a	h6	26.0	5.0	LH	65.0	68.0	56.0	60.0	X	left	0.372099999905	10358.0
n/a	n/a	h6	26.0	6.0	LH	59.0	64.0	56.0	60.0	X	left	0.407900000095	10417.0
n/a	n/a	h6	26.0	7.0	LH	46.0	52.0	56.0	60.0	X	left	0.417400000095	10463.0
n/a	n/a	h6	26.0	8.0	LH	68.0	58.0	56.0	60.0	X	left	0.567300000191	10531.0
n/a	n/a	h6	26.0	9.0	LH	62.0	62.0	56.0	60.0	X	left	0.767300000191	10593.0
n/a	n/a	h1	27.0	0.0	HL	57.0	35.0	60.0	40.0	L	left	0.283699999809	10650.0
n/a	n/a	h1	27.0	1.0	HL	63.0	50.0	60.0	40.0	R	right	0.382100000381	10700.0
n/a	n/a	h1	27.0	2.0	HL	57.0	53.0	60.0	40.0	L	left	0.221	10757.0
n/a	n/a	h1	27.0	3.0	HL	54.0	48.0	60.0	40.0	R	right	0.286099999905	10805.0
n/a	n/a	h1	27.0	4.0	HL	62.0	36.0	60.0	40.0	X	left	0.781199999809	10867.0
n/a	n/a	h6	28.0	0.0	HL	43.0	26.0	40.0	28.0	R	right	0.271700000286	10893.0
n/a	n/a	h6	28.0	1.0	HL	31.0	21.0	40.0	28.0	R	right	0.264	10914.0
n/a	n/a	h6	28.0	2.0	HL	36.0	25.0	40.0	28.0	R	right	0.2655	10939.0
n/a	n/a	h6	28.0	3.0	HL	40.0	23.0	40.0	28.0	L	left	0.45	10979.0
n/a	n/a	h6	28.0	4.0	HL	40.0	18.0	40.0	28.0	X	left	0.983599999905	11019.0
n/a	n/a	h6	28.0	5.0	HL	42.0	29.0	40.0	28.0	X	left	0.367	11061.0
n/a	n/a	h6	28.0	6.0	HL	38.0	28.0	40.0	28.0	X	left	0.332900000095	11099.0
n/a	n/a	h6	28.0	7.0	HL	43.0	28.0	40.0	28.0	X	left	0.634299999714	11142.0
n/a	n/a	h6	28.0	8.0	HL	43.0	29.0	40.0	28.0	X	right	1.1895999999	11171.0
n/a	n/a	h6	28.0	9.0	HL	45.0	35.0	40.0	28.0	X	left	0.454599999905	11216.0
n/a	n/a	h6	29.0	0.0	LH	22.0	58.0	40.0	52.0	L	left	0.368900000095	11238.0
n/a	n/a	h6	29.0	1.0	LH	32.0	51.0	40.0	52.0	R	right	0.334299999714	11289.0
n/a	n/a	h6	29.0	2.0	LH	62.0	53.0	40.0	52.0	L	left	0.216400000095	11351.0
n/a	n/a	h6	29.0	3.0	LH	52.0	54.0	40.0	52.0	R	right	0.808399999619	11405.0
n/a	n/a	h6	29.0	4.0	LH	37.0	56.0	40.0	52.0	X	right	0.968800000191	11461.0
n/a	n/a	h6	29.0	5.0	LH	45.0	43.0	40.0	52.0	X	right	0.268200000286	11504.0
n/a	n/a	h6	29.0	6.0	LH	55.0	51.0	40.0	52.0	X	right	0.8015	11555.0
n/a	n/a	h6	29.0	7.0	LH	45.0	42.0	40.0	52.0	X	right	0.517699999809	11597.0
n/a	n/a	h6	29.0	8.0	LH	49.0	39.0	40.0	52.0	X	left	1.6510999999	11646.0
n/a	n/a	h6	29.0	9.0	LH	34.0	68.0	40.0	52.0	X	left	0.672099999905	11680.0
n/a	n/a	h1	30.0	0.0	LH	43.0	75.0	40.0	70.0	R	right	0.302900000095	11755.0
n/a	n/a	h1	30.0	1.0	LH	30.0	80.0	40.0	70.0	R	right	0.300300000191	11835.0
n/a	n/a	h1	30.0	2.0	LH	40.0	70.0	40.0	70.0	R	right	0.483799999714	11905.0
n/a	n/a	h1	30.0	3.0	LH	22.0	65.0	40.0	70.0	L	left	0.306899999619	11927.0
n/a	n/a	h1	30.0	4.0	LH	40.0	78.0	40.0	70.0	X	right	0.592	12005.0
n/a	n/a	h1	31.0	0.0	HL	60.0	66.0	68.0	60.0	R	right	0.233100000381	12071.0
n/a	n/a	h1	31.0	1.0	HL	62.0	54.0	68.0	60.0	L	left	0.200300000191	12133.0
n/a	n/a	h1	31.0	2.0	HL	76.0	51.0	68.0	60.0	L	left	0.267099999905	12209.0
n/a	n/a	h1	31.0	3.0	HL	57.0	60.0	68.0	60.0	R	right	0.35	12269.0
n/a	n/a	h1	31.0	4.0	HL	64.0	44.0	68.0	60.0	X	left	0.750700000286	12333.0
n/a	n/a	h1	32.0	0.0	HL	30.0	7.0	40.0	10.0	R	right	0.283900000095	12340.0
n/a	n/a	h1	32.0	1.0	HL	39.0	11.0	40.0	10.0	L	left	0.233799999714	12379.0
n/a	n/a	h1	32.0	2.0	HL	45.0	1.0	40.0	10.0	R	right	0.282800000191	12380.0
n/a	n/a	h1	32.0	3.0	HL	46.0	17.0	40.0	10.0	L	left	0.351399999619	12426.0
n/a	n/a	h1	32.0	4.0	HL	34.0	9.0	40.0	10.0	X	left	0.733900000095	12460.0
n/a	n/a	h6	33.0	0.0	HL	49.0	41.0	60.0	40.0	L	left	0.333400000095	12509.0
n/a	n/a	h6	33.0	1.0	HL	68.0	43.0	60.0	40.0	R	right	0.399700000286	12552.0
n/a	n/a	h6	33.0	2.0	HL	67.0	40.0	60.0	40.0	L	left	0.201400000095	12619.0
n/a	n/a	h6	33.0	3.0	HL	55.0	36.0	60.0	40.0	R	right	0.305899999619	12655.0
n/a	n/a	h6	33.0	4.0	HL	59.0	49.0	60.0	40.0	X	left	0.799900000095	12714.0
n/a	n/a	h6	33.0	5.0	HL	60.0	28.0	60.0	40.0	X	left	0.401400000095	12774.0
n/a	n/a	h6	33.0	6.0	HL	50.0	48.0	60.0	40.0	X	left	0.434900000095	12824.0
n/a	n/a	h6	33.0	7.0	HL	64.0	50.0	60.0	40.0	X	left	0.650699999809	12888.0
n/a	n/a	h6	33.0	8.0	HL	57.0	31.0	60.0	40.0	X	left	0.534099999905	12945.0
n/a	n/a	h6	33.0	9.0	HL	54.0	45.0	60.0	40.0	X	left	0.334099999905	12999.0
n/a	n/a	h6	34.0	0.0	LH	62.0	77.0	60.0	80.0	L	left	0.3845	13061.0
n/a	n/a	h6	34.0	1.0	LH	60.0	67.0	60.0	80.0	L	left	0.284800000191	13121.0
n/a	n/a	h6	34.0	2.0	LH	58.0	68.0	60.0	80.0	L	left	0.252	13179.0
n/a	n/a	h6	34.0	3.0	LH	57.0	78.0	60.0	80.0	R	right	0.250599999905	13257.0
n/a	n/a	h6	34.0	4.0	LH	66.0	90.0	60.0	80.0	X	left	1.117	13323.0
n/a	n/a	h6	34.0	5.0	LH	81.0	75.0	60.0	80.0	X	left	0.318	13404.0
n/a	n/a	h6	34.0	6.0	LH	67.0	84.0	60.0	80.0	X	left	0.469199999809	13471.0
n/a	n/a	h6	34.0	7.0	LH	53.0	68.0	60.0	80.0	X	left	0.551599999905	13524.0
n/a	n/a	h6	34.0	8.0	LH	72.0	88.0	60.0	80.0	X	left	1.15720000029	13596.0
n/a	n/a	h6	34.0	9.0	LH	58.0	63.0	60.0	80.0	X	left	0.518199999809	13654.0
n/a	n/a	h6	35.0	0.0	LH	27.0	48.0	30.0	60.0	R	right	0.791799999714	13702.0
n/a	n/a	h6	35.0	1.0	LH	40.0	61.0	30.0	60.0	R	right	0.218	13763.0
n/a	n/a	h6	35.0	2.0	LH	20.0	58.0	30.0	60.0	L	left	0.300599999905	13783.0
n/a	n/a	h6	35.0	3.0	LH	38.0	65.0	30.0	60.0	L	left	0.250799999714	13821.0
n/a	n/a	h6	35.0	4.0	LH	30.0	62.0	30.0	60.0	X	right	0.450699999809	13883.0
n/a	n/a	h6	35.0	5.0	LH	25.0	58.0	30.0	60.0	X	right	0.266900000095	13941.0
n/a	n/a	h6	35.0	6.0	LH	32.0	69.0	30.0	60.0	X	right	0.267399999619	14010.0
n/a	n/a	h6	35.0	7.0	LH	38.0	65.0	30.0	60.0	X	right	0.668200000286	14075.0
n/a	n/a	h6	35.0	8.0	LH	40.0	80.0	30.0	60.0	X	right	0.507	14155.0
n/a	n/a	h6	35.0	9.0	LH	18.0	68.0	30.0	60.0	X	right	0.472400000095	14223.0
n/a	n/a	h1	36.0	0.0	HL	70.0	37.0	60.0	40.0	R	right	0.517699999809	14260.0
n/a	n/a	h1	36.0	1.0	HL	68.0	36.0	60.0	40.0	R	right	0.352900000095	14296.0
n/a	n/a	h1	36.0	2.0	HL	46.0	26.0	60.0	40.0	R	right	0.334	14322.0
n/a	n/a	h1	36.0	3.0	HL	54.0	32.0	60.0	40.0	L	left	0.349099999905	14376.0
n/a	n/a	h1	36.0	4.0	HL	54.0	46.0	60.0	40.0	X	right	1.01580000019	14422.0
n/a	n/a	h1	37.0	0.0	LH	51.0	75.0	48.0	60.0	R	right	0.251900000095	14497.0
n/a	n/a	h1	37.0	1.0	LH	58.0	57.0	48.0	60.0	R	right	0.301599999905	14554.0
n/a	n/a	h1	37.0	2.0	LH	46.0	58.0	48.0	60.0	L	left	0.400400000095	14600.0
n/a	n/a	h1	37.0	3.0	LH	40.0	48.0	48.0	60.0	R	right	0.651099999905	14648.0
n/a	n/a	h1	37.0	4.0	LH	42.0	54.0	48.0	60.0	X	right	0.406799999714	14702.0
n/a	n/a	h6	38.0	0.0	HL	77.0	45.0	70.0	40.0	L	left	0.268099999905	14779.0
n/a	n/a	h6	38.0	1.0	HL	68.0	29.0	70.0	40.0	L	left	0.2895	14847.0
n/a	n/a	h6	38.0	2.0	HL	71.0	27.0	70.0	40.0	L	left	0.270900000095	14918.0
n/a	n/a	h6	38.0	3.0	HL	82.0	35.0	70.0	40.0	R	right	0.288099999905	14953.0
n/a	n/a	h6	38.0	4.0	HL	64.0	43.0	70.0	40.0	X	left	0.435699999809	15017.0
n/a	n/a	h6	38.0	5.0	HL	56.0	43.0	70.0	40.0	X	left	0.383700000286	15073.0
n/a	n/a	h6	38.0	6.0	HL	73.0	47.0	70.0	40.0	X	right	1.23520000029	15120.0
n/a	n/a	h6	38.0	7.0	HL	80.0	40.0	70.0	40.0	X	left	0.533800000191	15200.0
n/a	n/a	h6	38.0	8.0	HL	71.0	44.0	70.0	40.0	X	left	0.467800000191	15271.0
n/a	n/a	h6	38.0	9.0	HL	83.0	48.0	70.0	40.0	X	left	0.418	15354.0
n/a	n/a	h1	39.0	0.0	HL	39.0	32.0	44.0	40.0	L	left	0.250900000095	15393.0
n/a	n/a	h1	39.0	1.0	HL	36.0	52.0	44.0	40.0	L	left	0.258300000191	15429.0
n/a	n/a	h1	39.0	2.0	HL	39.0	47.0	44.0	40.0	L	left	0.368900000095	15468.0
n/a	n/a	h1	39.0	3.0	HL	49.0	32.0	44.0	40.0	R	right	0.250700000286	15500.0
n/a	n/a	h1	39.0	4.0	HL	55.0	46.0	44.0	40.0	X	left	0.435	15555.0
n/a	n/a	h6	40.0	0.0	HL	36.0	38.0	40.0	28.0	L	left	0.388300000191	15591.0
n/a	n/a	h6	40.0	1.0	HL	37.0	40.0	40.0	28.0	L	left	0.270300000191	15628.0
n/a	n/a	h6	40.0	2.0	HL	33.0	23.0	40.0	28.0	R	right	0.301	15651.0
n/a	n/a	h6	40.0	3.0	HL	44.0	27.0	40.0	28.0	R	right	0.317399999619	15678.0
n/a	n/a	h6	40.0	4.0	HL	22.0	36.0	40.0	28.0	X	left	0.665800000191	15700.0
n/a	n/a	h6	40.0	5.0	HL	47.0	30.0	40.0	28.0	X	left	0.701099999905	15747.0
n/a	n/a	h6	40.0	6.0	HL	31.0	16.0	40.0	28.0	X	left	0.449800000191	15778.0
n/a	n/a	h6	40.0	7.0	HL	47.0	34.0	40.0	28.0	X	right	0.350900000095	15812.0
n/a	n/a	h6	40.0	8.0	HL	39.0	20.0	40.0	28.0	X	left	0.740200000286	15851.0
n/a	n/a	h6	40.0	9.0	HL	37.0	36.0	40.0	28.0	X	left	1.073	15888.0
n/a	n/a	h1	41.0	0.0	LH	65.0	58.0	52.0	60.0	L	left	0.351100000381	15953.0
n/a	n/a	h1	41.0	1.0	LH	49.0	64.0	52.0	60.0	L	left	0.267800000191	16002.0
n/a	n/a	h1	41.0	2.0	LH	52.0	73.0	52.0	60.0	R	right	0.323	16075.0
n/a	n/a	h1	41.0	3.0	LH	52.0	64.0	52.0	60.0	R	right	0.375900000095	16139.0
n/a	n/a	h1	41.0	4.0	LH	52.0	62.0	52.0	60.0	X	right	0.518099999905	16201.0
n/a	n/a	h1	42.0	0.0	LH	22.0	75.0	40.0	70.0	R	right	0.250699999809	16276.0
n/a	n/a	h1	42.0	1.0	LH	30.0	65.0	40.0	70.0	R	right	0.2185	16341.0
n/a	n/a	h1	42.0	2.0	LH	40.0	70.0	40.0	70.0	R	right	0.3505	16411.0
n/a	n/a	h1	42.0	3.0	LH	43.0	80.0	40.0	70.0	L	left	0.467800000191	16454.0
n/a	n/a	h1	42.0	4.0	LH	44.0	86.0	40.0	70.0	X	right	0.350099999905	16540.0
n/a	n/a	h1	43.0	0.0	LH	32.0	50.0	36.0	40.0	L	left	0.271900000095	16572.0
n/a	n/a	h1	43.0	1.0	LH	39.0	44.0	36.0	40.0	R	right	0.250099999905	16616.0
n/a	n/a	h1	43.0	2.0	LH	27.0	48.0	36.0	40.0	L	left	0.234400000095	16643.0
n/a	n/a	h1	43.0	3.0	LH	44.0	31.0	36.0	40.0	L	left	0.352099999905	16687.0
n/a	n/a	h1	43.0	4.0	LH	42.0	45.0	36.0	40.0	X	left	0.657599999905	16729.0
n/a	n/a	h1	44.0	0.0	HL	58.0	57.0	64.0	60.0	L	left	0.367900000095	16787.0
n/a	n/a	h1	44.0	1.0	HL	68.0	62.0	64.0	60.0	R	right	0.268099999905	16849.0
n/a	n/a	h1	44.0	2.0	HL	61.0	75.0	64.0	60.0	L	left	0.168100000381	16910.0
n/a	n/a	h1	44.0	3.0	HL	44.0	57.0	64.0	60.0	R	right	0.367600000382	16967.0
n/a	n/a	h1	44.0	4.0	HL	65.0	64.0	64.0	60.0	X	right	2.0010999999	17031.0
n/a	n/a	h1	45.0	0.0	HL	60.0	55.0	72.0	60.0	L	left	0.251099999905	17091.0
n/a	n/a	h1	45.0	1.0	HL	69.0	48.0	72.0	60.0	R	right	0.367799999714	17139.0
n/a	n/a	h1	45.0	2.0	HL	62.0	75.0	72.0	60.0	L	left	0.205400000095	17201.0
n/a	n/a	h1	45.0	3.0	HL	69.0	50.0	72.0	60.0	R	right	0.285699999809	17251.0
n/a	n/a	h1	45.0	4.0	HL	75.0	58.0	72.0	60.0	X	left	1.66710000038	17326.0
n/a	n/a	h6	46.0	0.0	LH	72.0	71.0	60.0	64.0	L	left	0.301	17398.0
n/a	n/a	h6	46.0	1.0	LH	61.0	87.0	60.0	64.0	L	left	0.256699999809	17459.0
n/a	n/a	h6	46.0	2.0	LH	49.0	70.0	60.0	64.0	R	right	0.483900000095	17529.0
n/a	n/a	h6	46.0	3.0	LH	61.0	65.0	60.0	64.0	R	right	0.301600000381	17594.0
n/a	n/a	h6	46.0	4.0	LH	70.0	72.0	60.0	64.0	X	right	1.70229999971	17666.0
n/a	n/a	h6	46.0	5.0	LH	69.0	65.0	60.0	64.0	X	right	0.302200000286	17731.0
n/a	n/a	h6	46.0	6.0	LH	60.0	52.0	60.0	64.0	X	right	0.381700000286	17783.0
n/a	n/a	h6	46.0	7.0	LH	63.0	61.0	60.0	64.0	X	right	0.316300000191	17844.0
n/a	n/a	h6	46.0	8.0	LH	58.0	76.0	60.0	64.0	X	right	0.433599999905	17920.0
n/a	n/a	h6	46.0	9.0	LH	54.0	59.0	60.0	64.0	X	right	0.340200000286	17979.0
n/a	n/a	h1	47.0	0.0	HL	67.0	59.0	68.0	60.0	L	left	0.484699999809	18046.0
n/a	n/a	h1	47.0	1.0	HL	54.0	58.0	68.0	60.0	R	right	0.257900000095	18104.0
n/a	n/a	h1	47.0	2.0	HL	57.0	48.0	68.0	60.0	L	left	0.234100000381	18161.0
n/a	n/a	h1	47.0	3.0	HL	65.0	61.0	68.0	60.0	L	left	0.501400000095	18226.0
n/a	n/a	h1	47.0	4.0	HL	70.0	45.0	68.0	60.0	X	left	0.500800000191	18296.0
n/a	n/a	h1	48.0	0.0	HL	67.0	16.0	60.0	30.0	R	right	0.373599999905	18312.0
n/a	n/a	h1	48.0	1.0	HL	67.0	38.0	60.0	30.0	R	right	0.286900000095	18350.0
n/a	n/a	h1	48.0	2.0	HL	83.0	27.0	60.0	30.0	R	right	0.268699999809	18377.0
n/a	n/a	h1	48.0	3.0	HL	55.0	34.0	60.0	30.0	L	left	0.2845	18432.0
n/a	n/a	h1	48.0	4.0	HL	70.0	22.0	60.0	30.0	X	right	1.30130000019	18454.0
n/a	n/a	h6	49.0	0.0	HL	72.0	45.0	70.0	40.0	L	left	0.392099999905	18526.0
n/a	n/a	h6	49.0	1.0	HL	68.0	29.0	70.0	40.0	L	left	0.217899999619	18594.0
n/a	n/a	h6	49.0	2.0	HL	64.0	27.0	70.0	40.0	L	left	0.289	18658.0
n/a	n/a	h6	49.0	3.0	HL	82.0	31.0	70.0	40.0	R	right	0.3015	18689.0
n/a	n/a	h6	49.0	4.0	HL	77.0	23.0	70.0	40.0	X	left	0.917800000191	18766.0
n/a	n/a	h6	49.0	5.0	HL	74.0	35.0	70.0	40.0	X	left	0.336699999809	18840.0
n/a	n/a	h6	49.0	6.0	HL	86.0	53.0	70.0	40.0	X	left	0.498199999809	18926.0
n/a	n/a	h6	49.0	7.0	HL	68.0	32.0	70.0	40.0	X	left	0.304800000191	18994.0
n/a	n/a	h6	49.0	8.0	HL	71.0	27.0	70.0	40.0	X	left	0.735400000095	19065.0
n/a	n/a	h6	49.0	9.0	HL	67.0	43.0	70.0	40.0	X	left	0.550900000095	19132.0
n/a	n/a	h6	50.0	0.0	HL	89.0	65.0	90.0	60.0	L	left	0.4175	19221.0
n/a	n/a	h6	50.0	1.0	HL	88.0	57.0	90.0	60.0	L	left	0.217400000095	19309.0
n/a	n/a	h6	50.0	2.0	HL	84.0	72.0	90.0	60.0	R	right	0.337800000191	19381.0
n/a	n/a	h6	50.0	3.0	HL	76.0	67.0	90.0	60.0	R	right	0.357300000191	19448.0
n/a	n/a	h6	50.0	4.0	HL	96.0	66.0	90.0	60.0	X	left	0.350799999714	19544.0
n/a	n/a	h6	50.0	5.0	HL	99.0	61.0	90.0	60.0	X	left	0.3865	19643.0
n/a	n/a	h6	50.0	6.0	HL	84.0	67.0	90.0	60.0	X	left	0.415699999809	19727.0
n/a	n/a	h6	50.0	7.0	HL	91.0	70.0	90.0	60.0	X	left	0.285200000286	19818.0
n/a	n/a	h6	50.0	8.0	HL	85.0	51.0	90.0	60.0	X	left	0.382199999809	19903.0
n/a	n/a	h6	50.0	9.0	HL	83.0	59.0	90.0	60.0	X	left	0.574699999809	19986.0
n/a	n/a	h6	51.0	0.0	HL	60.0	51.0	60.0	52.0	R	right	0.367800000191	20037.0
n/a	n/a	h6	51.0	1.0	HL	55.0	43.0	60.0	52.0	L	left	0.2675	20092.0
n/a	n/a	h6	51.0	2.0	HL	59.0	62.0	60.0	52.0	L	left	0.301099999905	20151.0
n/a	n/a	h6	51.0	3.0	HL	53.0	52.0	60.0	52.0	R	right	0.235100000381	20203.0
n/a	n/a	h6	51.0	4.0	HL	52.0	57.0	60.0	52.0	X	left	1.3884000001	20255.0
n/a	n/a	h6	51.0	5.0	HL	78.0	49.0	60.0	52.0	X	left	0.301699999809	20333.0
n/a	n/a	h6	51.0	6.0	HL	44.0	61.0	60.0	52.0	X	left	0.468	20377.0
n/a	n/a	h6	51.0	7.0	HL	65.0	44.0	60.0	52.0	X	left	0.634400000095	20442.0
n/a	n/a	h6	51.0	8.0	HL	60.0	42.0	60.0	52.0	X	left	0.551199999809	20502.0
n/a	n/a	h6	51.0	9.0	HL	59.0	67.0	60.0	52.0	X	left	0.704100000381	20561.0
n/a	n/a	h6	52.0	0.0	LH	40.0	38.0	40.0	48.0	L	left	0.333900000095	20601.0
n/a	n/a	h6	52.0	1.0	LH	42.0	44.0	40.0	48.0	L	left	0.3015	20643.0
n/a	n/a	h6	52.0	2.0	LH	60.0	47.0	40.0	48.0	R	right	0.284400000095	20690.0
n/a	n/a	h6	52.0	3.0	LH	37.0	52.0	40.0	48.0	R	right	0.334800000191	20742.0
n/a	n/a	h6	52.0	4.0	LH	31.0	59.0	40.0	48.0	X	right	1.3510999999	20801.0
n/a	n/a	h6	52.0	5.0	LH	39.0	40.0	40.0	48.0	X	right	0.421400000095	20841.0
n/a	n/a	h6	52.0	6.0	LH	43.0	44.0	40.0	48.0	X	left	0.485800000191	20884.0
n/a	n/a	h6	52.0	7.0	LH	50.0	47.0	40.0	48.0	X	left	0.584600000381	20934.0
n/a	n/a	h6	52.0	8.0	LH	55.0	41.0	40.0	48.0	X	right	0.523900000095	20975.0
n/a	n/a	h6	52.0	9.0	LH	34.0	45.0	40.0	48.0	X	left	0.450100000381	21009.0
n/a	n/a	h6	53.0	0.0	LH	19.0	45.0	30.0	60.0	R	right	0.353699999809	21054.0
n/a	n/a	h6	53.0	1.0	LH	39.0	62.0	30.0	60.0	L	left	0.252400000095	21093.0
n/a	n/a	h6	53.0	2.0	LH	24.0	65.0	30.0	60.0	L	left	0.450799999714	21117.0
n/a	n/a	h6	53.0	3.0	LH	42.0	55.0	30.0	60.0	L	left	0.355300000191	21159.0
n/a	n/a	h6	53.0	4.0	LH	37.0	72.0	30.0	60.0	X	left	1.1899000001	21196.0
n/a	n/a	h6	53.0	5.0	LH	31.0	61.0	30.0	60.0	X	left	0.716900000095	21227.0
n/a	n/a	h6	53.0	6.0	LH	33.0	50.0	30.0	60.0	X	right	0.4175	21277.0
n/a	n/a	h6	53.0	7.0	LH	29.0	88.0	30.0	60.0	X	right	0.568400000095	21365.0
n/a	n/a	h6	53.0	8.0	LH	11.0	62.0	30.0	60.0	X	right	0.451299999714	21427.0
n/a	n/a	h6	53.0	9.0	LH	44.0	70.0	30.0	60.0	X	right	0.451299999714	21497.0
n/a	n/a	h6	54.0	0.0	HL	41.0	38.0	40.0	28.0	L	left	0.368400000095	21538.0
n/a	n/a	h6	54.0	1.0	HL	37.0	27.0	40.0	28.0	L	left	0.250400000095	21575.0
n/a	n/a	h6	54.0	2.0	HL	33.0	23.0	40.0	28.0	R	right	0.384900000095	21598.0
n/a	n/a	h6	54.0	3.0	HL	44.0	40.0	40.0	28.0	R	right	0.290900000095	21638.0
n/a	n/a	h6	54.0	4.0	HL	27.0	30.0	40.0	28.0	X	left	1.119	21665.0
n/a	n/a	h6	54.0	5.0	HL	36.0	28.0	40.0	28.0	X	right	0.449	21693.0
n/a	n/a	h6	54.0	6.0	HL	45.0	35.0	40.0	28.0	X	right	0.866599999905	21728.0
n/a	n/a	h6	54.0	7.0	HL	44.0	28.0	40.0	28.0	X	right	0.400400000095	21756.0
n/a	n/a	h6	54.0	8.0	HL	42.0	30.0	40.0	28.0	X	left	0.219199999809	21798.0
n/a	n/a	h6	54.0	9.0	HL	45.0	31.0	40.0	28.0	X	left	0.333699999809	21843.0
n/a	n/a	h1	55.0	0.0	LH	40.0	64.0	40.0	52.0	L	left	0.301099999905	21883.0
n/a	n/a	h1	55.0	1.0	LH	34.0	52.0	40.0	52.0	L	left	0.251400000095	21917.0
n/a	n/a	h1	55.0	2.0	LH	40.0	58.0	40.0	52.0	R	right	0.333700000286	21975.0
n/a	n/a	h1	55.0	3.0	LH	58.0	62.0	40.0	52.0	L	left	1.08419999981	22033.0
n/a	n/a	h1	55.0	4.0	LH	44.0	48.0	40.0	52.0	X	left	1.25420000029	22077.0
n/a	n/a	h6	56.0	0.0	HL	60.0	56.0	60.0	52.0	R	right	0.368700000286	22133.0
n/a	n/a	h6	56.0	1.0	HL	67.0	49.0	60.0	52.0	L	left	0.284099999905	22200.0
n/a	n/a	h6	56.0	2.0	HL	67.0	51.0	60.0	52.0	R	right	0.317199999809	22251.0
n/a	n/a	h6	56.0	3.0	HL	69.0	59.0	60.0	52.0	R	right	0.301199999809	22310.0
n/a	n/a	h6	56.0	4.0	HL	70.0	78.0	60.0	52.0	X	right	0.304700000286	22388.0
n/a	n/a	h6	56.0	5.0	HL	55.0	45.0	60.0	52.0	X	right	0.3345	22433.0
n/a	n/a	h6	56.0	6.0	HL	75.0	51.0	60.0	52.0	X	right	0.701599999905	22484.0
n/a	n/a	h6	56.0	7.0	HL	66.0	67.0	60.0	52.0	X	right	0.717199999809	22551.0
n/a	n/a	h6	56.0	8.0	HL	61.0	45.0	60.0	52.0	X	right	0.501199999809	22596.0
n/a	n/a	h6	56.0	9.0	HL	60.0	63.0	60.0	52.0	X	right	0.701	22659.0
n/a	n/a	h6	57.0	0.0	HL	39.0	36.0	40.0	36.0	R	right	0.333599999905	22695.0
n/a	n/a	h6	57.0	1.0	HL	31.0	38.0	40.0	36.0	R	right	0.404299999714	22733.0
n/a	n/a	h6	57.0	2.0	HL	46.0	27.0	40.0	36.0	L	left	0.318	22779.0
n/a	n/a	h6	57.0	3.0	HL	35.0	50.0	40.0	36.0	L	left	0.506200000286	22814.0
n/a	n/a	h6	57.0	4.0	HL	46.0	20.0	40.0	36.0	X	left	0.817900000095	22860.0
n/a	n/a	h6	57.0	5.0	HL	45.0	22.0	40.0	36.0	X	left	0.334400000095	22905.0
n/a	n/a	h6	57.0	6.0	HL	31.0	42.0	40.0	36.0	X	left	0.635199999809	22936.0
n/a	n/a	h6	57.0	7.0	HL	40.0	31.0	40.0	36.0	X	left	0.850300000191	22976.0
n/a	n/a	h6	57.0	8.0	HL	49.0	43.0	40.0	36.0	X	left	0.718099999905	23025.0
n/a	n/a	h6	57.0	9.0	HL	26.0	21.0	40.0	36.0	X	right	1.5184000001	23046.0
n/a	n/a	h1	58.0	0.0	HL	75.0	57.0	64.0	60.0	L	left	0.651299999714	23121.0
n/a	n/a	h1	58.0	1.0	HL	68.0	75.0	64.0	60.0	R	right	0.251199999809	23196.0
n/a	n/a	h1	58.0	2.0	HL	61.0	62.0	64.0	60.0	L	left	0.246199999809	23257.0
n/a	n/a	h1	58.0	3.0	HL	44.0	57.0	64.0	60.0	R	right	0.535599999905	23314.0
n/a	n/a	h1	58.0	4.0	HL	58.0	52.0	64.0	60.0	X	left	0.967799999714	23372.0
n/a	n/a	h6	59.0	0.0	LH	19.0	65.0	30.0	60.0	R	right	0.317900000095	23437.0
n/a	n/a	h6	59.0	1.0	LH	39.0	62.0	30.0	60.0	L	left	0.214099999905	23476.0
n/a	n/a	h6	59.0	2.0	LH	24.0	45.0	30.0	60.0	L	left	0.267600000381	23500.0
n/a	n/a	h6	59.0	3.0	LH	25.0	55.0	30.0	60.0	L	left	0.256900000095	23525.0
n/a	n/a	h6	59.0	4.0	LH	40.0	55.0	30.0	60.0	X	right	0.467900000095	23580.0
n/a	n/a	h6	59.0	5.0	LH	23.0	71.0	30.0	60.0	X	right	0.390199999809	23651.0
n/a	n/a	h6	59.0	6.0	LH	42.0	65.0	30.0	60.0	X	right	0.237700000286	23716.0
n/a	n/a	h6	59.0	7.0	LH	28.0	55.0	30.0	60.0	X	right	0.551399999619	23771.0
n/a	n/a	h6	59.0	8.0	LH	17.0	65.0	30.0	60.0	X	right	0.634599999905	23836.0
n/a	n/a	h6	59.0	9.0	LH	30.0	64.0	30.0	60.0	X	right	0.6175	23900.0
n/a	n/a	h6	60.0	0.0	LH	69.0	62.0	56.0	60.0	R	right	0.317599999905	23962.0
n/a	n/a	h6	60.0	1.0	LH	54.0	53.0	56.0	60.0	L	left	0.201	24016.0
n/a	n/a	h6	60.0	2.0	LH	57.0	59.0	56.0	60.0	L	left	0.305599999905	24073.0
n/a	n/a	h6	60.0	3.0	LH	62.0	60.0	56.0	60.0	L	left	0.268400000095	24135.0
n/a	n/a	h6	60.0	4.0	LH	57.0	51.0	56.0	60.0	X	left	0.331599999905	24192.0
n/a	n/a	h6	60.0	5.0	LH	58.0	50.0	56.0	60.0	X	left	0.439299999714	24250.0
n/a	n/a	h6	60.0	6.0	LH	65.0	48.0	56.0	60.0	X	left	0.299599999905	24315.0
n/a	n/a	h6	60.0	7.0	LH	64.0	68.0	56.0	60.0	X	left	0.699799999714	24379.0
n/a	n/a	h6	60.0	8.0	LH	55.0	54.0	56.0	60.0	X	left	0.398899999618	24434.0
n/a	n/a	h6	60.0	9.0	LH	44.0	46.0	56.0	60.0	X	left	0.468300000191	24478.0
n/a	n/a	h1	61.0	0.0	HL	54.0	35.0	60.0	40.0	L	left	0.3515	24532.0
n/a	n/a	h1	61.0	1.0	HL	63.0	42.0	60.0	40.0	R	right	0.286800000191	24574.0
n/a	n/a	h1	61.0	2.0	HL	57.0	53.0	60.0	40.0	L	left	0.251599999905	24631.0
n/a	n/a	h1	61.0	3.0	HL	57.0	48.0	60.0	40.0	R	right	0.367199999809	24679.0
n/a	n/a	h1	61.0	4.0	HL	58.0	50.0	60.0	40.0	X	left	0.484100000382	24737.0
n/a	n/a	h6	62.0	0.0	HL	60.0	56.0	60.0	52.0	R	right	0.267699999809	24793.0
n/a	n/a	h6	62.0	1.0	HL	62.0	49.0	60.0	52.0	L	left	0.200799999714	24855.0
n/a	n/a	h6	62.0	2.0	HL	67.0	51.0	60.0	52.0	R	right	0.635199999809	24906.0
n/a	n/a	h6	62.0	3.0	HL	69.0	53.0	60.0	52.0	R	right	0.435100000381	24959.0
n/a	n/a	h6	62.0	4.0	HL	57.0	49.0	60.0	52.0	X	right	0.521099999905	25008.0
n/a	n/a	h6	62.0	5.0	HL	62.0	39.0	60.0	52.0	X	right	0.590200000286	25047.0
n/a	n/a	h6	62.0	6.0	HL	42.0	47.0	60.0	52.0	X	right	0.865699999809	25094.0
n/a	n/a	h6	62.0	7.0	HL	69.0	36.0	60.0	52.0	X	right	0.669900000095	25130.0
n/a	n/a	h6	62.0	8.0	HL	67.0	45.0	60.0	52.0	X	left	0.484300000191	25197.0
n/a	n/a	h6	62.0	9.0	HL	58.0	56.0	60.0	52.0	X	left	0.458	25255.0
n/a	n/a	h6	63.0	0.0	LH	65.0	77.0	60.0	80.0	L	left	0.404300000191	25320.0
n/a	n/a	h6	63.0	1.0	LH	60.0	78.0	60.0	80.0	L	left	0.2835	25380.0
n/a	n/a	h6	63.0	2.0	LH	58.0	68.0	60.0	80.0	L	left	0.250399999619	25438.0
n/a	n/a	h6	63.0	3.0	LH	57.0	81.0	60.0	80.0	R	right	0.770199999809	25519.0
n/a	n/a	h6	63.0	4.0	LH	64.0	82.0	60.0	80.0	X	left	0.852600000381	25583.0
n/a	n/a	h6	63.0	5.0	LH	53.0	89.0	60.0	80.0	X	left	0.368399999619	25636.0
n/a	n/a	h6	63.0	6.0	LH	58.0	72.0	60.0	80.0	X	right	0.684400000095	25708.0
n/a	n/a	h6	63.0	7.0	LH	56.0	73.0	60.0	80.0	X	right	0.522200000286	25781.0
n/a	n/a	h6	63.0	8.0	LH	59.0	91.0	60.0	80.0	X	right	0.301200000286	25872.0
n/a	n/a	h6	63.0	9.0	LH	48.0	67.0	60.0	80.0	X	right	0.357099999905	25939.0
n/a	n/a	h1	64.0	0.0	LH	25.0	38.0	32.0	40.0	L	left	0.318099999905	25964.0
n/a	n/a	h1	64.0	1.0	LH	44.0	57.0	32.0	40.0	L	left	0.285	26008.0
n/a	n/a	h1	64.0	2.0	LH	29.0	47.0	32.0	40.0	R	right	0.287200000286	26055.0
n/a	n/a	h1	64.0	3.0	LH	36.0	31.0	32.0	40.0	L	left	0.236	26091.0
n/a	n/a	h1	64.0	4.0	LH	14.0	23.0	32.0	40.0	X	right	1.5189000001	26114.0
n/a	n/a	h6	65.0	0.0	LH	53.0	39.0	40.0	48.0	R	right	0.450900000095	26153.0
n/a	n/a	h6	65.0	1.0	LH	50.0	55.0	40.0	48.0	R	right	0.240199999809	26208.0
n/a	n/a	h6	65.0	2.0	LH	44.0	56.0	40.0	48.0	L	left	0.235700000286	26252.0
n/a	n/a	h6	65.0	3.0	LH	49.0	50.0	40.0	48.0	R	right	0.317800000191	26302.0
n/a	n/a	h6	65.0	4.0	LH	37.0	38.0	40.0	48.0	X	right	0.250799999714	26340.0
n/a	n/a	h6	65.0	5.0	LH	46.0	28.0	40.0	48.0	X	left	0.551100000381	26386.0
n/a	n/a	h6	65.0	6.0	LH	44.0	58.0	40.0	48.0	X	left	0.316600000381	26430.0
n/a	n/a	h6	65.0	7.0	LH	51.0	64.0	40.0	48.0	X	right	0.634899999619	26494.0
n/a	n/a	h6	65.0	8.0	LH	36.0	56.0	40.0	48.0	X	left	0.438299999714	26530.0
n/a	n/a	h6	65.0	9.0	LH	47.0	42.0	40.0	48.0	X	right	0.335	26572.0
n/a	n/a	h6	66.0	0.0	HL	28.0	15.0	40.0	20.0	L	left	0.384200000286	26600.0
n/a	n/a	h6	66.0	1.0	HL	53.0	16.0	40.0	20.0	L	left	0.268	26653.0
n/a	n/a	h6	66.0	2.0	HL	34.0	28.0	40.0	20.0	L	left	0.2845	26687.0
n/a	n/a	h6	66.0	3.0	HL	53.0	21.0	40.0	20.0	R	right	0.300800000191	26708.0
n/a	n/a	h6	66.0	4.0	HL	40.0	24.0	40.0	20.0	X	left	0.433900000095	26748.0
n/a	n/a	h6	66.0	5.0	HL	52.0	24.0	40.0	20.0	X	left	0.452900000095	26800.0
n/a	n/a	h6	66.0	6.0	HL	55.0	16.0	40.0	20.0	X	left	0.435	26855.0
n/a	n/a	h6	66.0	7.0	HL	24.0	24.0	40.0	20.0	X	left	0.704399999619	26879.0
n/a	n/a	h6	66.0	8.0	HL	40.0	23.0	40.0	20.0	X	right	0.537	26902.0
n/a	n/a	h6	66.0	9.0	HL	45.0	28.0	40.0	20.0	X	right	2.0674000001	26930.0
n/a	n/a	h6	67.0	0.0	LH	60.0	79.0	60.0	72.0	R	right	0.518199999809	27009.0
n/a	n/a	h6	67.0	1.0	LH	57.0	66.0	60.0	72.0	R	right	0.336199999809	27075.0
n/a	n/a	h6	67.0	2.0	LH	64.0	65.0	60.0	72.0	L	left	0.266599999905	27139.0
n/a	n/a	h6	67.0	3.0	LH	63.0	69.0	60.0	72.0	R	right	0.284	27208.0
n/a	n/a	h6	67.0	4.0	LH	65.0	75.0	60.0	72.0	X	right	0.303599999905	27283.0
n/a	n/a	h6	67.0	5.0	LH	52.0	77.0	60.0	72.0	X	right	0.3015	27360.0
n/a	n/a	h6	67.0	6.0	LH	73.0	86.0	60.0	72.0	X	right	0.401200000286	27446.0
n/a	n/a	h6	67.0	7.0	LH	66.0	80.0	60.0	72.0	X	right	0.354900000095	27526.0
n/a	n/a	h6	67.0	8.0	LH	57.0	73.0	60.0	72.0	X	right	0.251099999905	27599.0
n/a	n/a	h6	67.0	9.0	LH	60.0	75.0	60.0	72.0	X	right	0.405699999809	27674.0
n/a	n/a	h1	68.0	0.0	LH	45.0	56.0	40.0	60.0	R	right	0.417799999714	27730.0
n/a	n/a	h1	68.0	1.0	LH	29.0	52.0	40.0	60.0	R	right	0.267299999714	27782.0
n/a	n/a	h1	68.0	2.0	LH	47.0	60.0	40.0	60.0	R	right	0.317800000191	27842.0
n/a	n/a	h1	68.0	3.0	LH	36.0	57.0	40.0	60.0	L	left	0.284100000381	27878.0
n/a	n/a	h1	68.0	4.0	LH	41.0	51.0	40.0	60.0	X	right	0.201299999714	27929.0
n/a	n/a	h6	69.0	0.0	LH	25.0	48.0	20.0	40.0	L	left	0.417200000286	27954.0
n/a	n/a	h6	69.0	1.0	LH	20.0	33.0	20.0	40.0	R	right	0.2355	27987.0
n/a	n/a	h6	69.0	2.0	LH	8.0	50.0	20.0	40.0	R	right	0.249899999619	28037.0
n/a	n/a	h6	69.0	3.0	LH	14.0	48.0	20.0	40.0	L	left	0.309199999809	28051.0
n/a	n/a	h6	69.0	4.0	LH	22.0	28.0	20.0	40.0	X	right	1.18580000019	28079.0
n/a	n/a	h6	69.0	5.0	LH	24.0	35.0	20.0	40.0	X	left	1.6404000001	28103.0
n/a	n/a	h6	69.0	6.0	LH	22.0	40.0	20.0	40.0	X	left	0.638099999905	28125.0
n/a	n/a	h6	69.0	7.0	LH	27.0	49.0	20.0	40.0	X	right	0.481800000191	28174.0
n/a	n/a	h6	69.0	8.0	LH	31.0	37.0	20.0	40.0	X	right	1.28480000019	28211.0
n/a	n/a	h6	69.0	9.0	LH	26.0	57.0	20.0	40.0	X	right	0.6345	28268.0
n/a	n/a	h1	70.0	0.0	LH	32.0	76.0	40.0	60.0	L	left	0.368200000286	28300.0
n/a	n/a	h1	70.0	1.0	LH	37.0	65.0	40.0	60.0	R	right	0.301399999619	28365.0
n/a	n/a	h1	70.0	2.0	LH	37.0	68.0	40.0	60.0	L	left	0.272900000095	28402.0
n/a	n/a	h1	70.0	3.0	LH	46.0	55.0	40.0	60.0	R	right	0.317800000191	28457.0
n/a	n/a	h1	70.0	4.0	LH	31.0	69.0	40.0	60.0	X	right	0.457400000095	28526.0
n/a	n/a	h1	71.0	0.0	LH	48.0	67.0	40.0	70.0	R	right	0.317800000191	28593.0
n/a	n/a	h1	71.0	1.0	LH	31.0	62.0	40.0	70.0	L	left	0.2015	28624.0
n/a	n/a	h1	71.0	2.0	LH	39.0	65.0	40.0	70.0	R	right	0.288800000191	28689.0
n/a	n/a	h1	71.0	3.0	LH	50.0	62.0	40.0	70.0	L	left	0.217599999905	28739.0
n/a	n/a	h1	71.0	4.0	LH	47.0	64.0	40.0	70.0	X	right	0.348299999714	28803.0
n/a	n/a	h1	72.0	0.0	LH	32.0	50.0	36.0	40.0	L	left	0.324600000381	28835.0
n/a	n/a	h1	72.0	1.0	LH	39.0	48.0	36.0	40.0	R	right	0.3005	28883.0
n/a	n/a	h1	72.0	2.0	LH	32.0	44.0	36.0	40.0	L	left	0.200799999714	28915.0
n/a	n/a	h1	72.0	3.0	LH	44.0	31.0	36.0	40.0	L	left	0.268900000095	28959.0
n/a	n/a	h1	72.0	4.0	LH	27.0	33.0	36.0	40.0	X	left	0.355099999905	28986.0
n/a	n/a	h1	73.0	0.0	LH	29.0	30.0	28.0	40.0	R	right	0.234300000191	29016.0
n/a	n/a	h1	73.0	1.0	LH	27.0	39.0	28.0	40.0	L	left	0.234100000381	29043.0
n/a	n/a	h1	73.0	2.0	LH	25.0	54.0	28.0	40.0	R	right	0.401	29097.0
n/a	n/a	h1	73.0	3.0	LH	31.0	44.0	28.0	40.0	L	left	0.401200000286	29128.0
n/a	n/a	h1	73.0	4.0	LH	26.0	45.0	28.0	40.0	X	right	0.537599999905	29173.0
n/a	n/a	h1	74.0	0.0	LH	46.0	75.0	48.0	60.0	R	right	0.367400000095	29248.0
n/a	n/a	h1	74.0	1.0	LH	58.0	48.0	48.0	60.0	R	right	0.317800000191	29296.0
n/a	n/a	h1	74.0	2.0	LH	51.0	58.0	48.0	60.0	L	left	0.317799999714	29347.0
n/a	n/a	h1	74.0	3.0	LH	40.0	57.0	48.0	60.0	R	right	0.296599999905	29404.0
n/a	n/a	h1	74.0	4.0	LH	29.0	51.0	48.0	60.0	X	right	0.223	29455.0
n/a	n/a	h1	75.0	0.0	LH	58.0	43.0	56.0	60.0	L	left	0.300900000095	29513.0
n/a	n/a	h1	75.0	1.0	LH	33.0	67.0	56.0	60.0	R	right	0.235	29580.0
n/a	n/a	h1	75.0	2.0	LH	55.0	59.0	56.0	60.0	L	left	0.223099999905	29635.0
n/a	n/a	h1	75.0	3.0	LH	42.0	64.0	56.0	60.0	R	right	0.2875	29699.0
n/a	n/a	h1	75.0	4.0	LH	66.0	59.0	56.0	60.0	X	right	0.219599999905	29758.0
n/a	n/a	h6	76.0	0.0	HL	55.0	61.0	60.0	52.0	R	right	0.251099999905	29819.0
n/a	n/a	h6	76.0	1.0	HL	60.0	43.0	60.0	52.0	L	left	0.207599999905	29879.0
n/a	n/a	h6	76.0	2.0	HL	65.0	62.0	60.0	52.0	L	left	0.424799999714	29944.0
n/a	n/a	h6	76.0	3.0	HL	53.0	41.0	60.0	52.0	R	right	0.336200000286	29985.0
n/a	n/a	h6	76.0	4.0	HL	61.0	57.0	60.0	52.0	X	left	0.6495	30046.0
n/a	n/a	h6	76.0	5.0	HL	59.0	67.0	60.0	52.0	X	left	0.501900000095	30105.0
n/a	n/a	h6	76.0	6.0	HL	42.0	45.0	60.0	52.0	X	left	0.622800000191	30147.0
n/a	n/a	h6	76.0	7.0	HL	60.0	45.0	60.0	52.0	X	right	0.468	30192.0
n/a	n/a	h6	76.0	8.0	HL	64.0	53.0	60.0	52.0	X	right	0.469599999905	30245.0
n/a	n/a	h6	76.0	9.0	HL	56.0	38.0	60.0	52.0	X	left	1.13929999971	30301.0
n/a	n/a	h1	77.0	0.0	LH	52.0	73.0	52.0	60.0	L	left	0.284599999905	30353.0
n/a	n/a	h1	77.0	1.0	LH	49.0	64.0	52.0	60.0	L	left	0.399800000191	30402.0
n/a	n/a	h1	77.0	2.0	LH	65.0	58.0	52.0	60.0	R	right	0.384300000191	30460.0
n/a	n/a	h1	77.0	3.0	LH	52.0	61.0	52.0	60.0	R	right	0.257899999619	30521.0
n/a	n/a	h1	77.0	4.0	LH	57.0	64.0	52.0	60.0	X	right	0.300400000095	30585.0
n/a	n/a	h6	78.0	0.0	LH	64.0	66.0	60.0	72.0	R	right	0.217400000095	30651.0
n/a	n/a	h6	78.0	1.0	LH	57.0	79.0	60.0	72.0	R	right	0.305199999809	30730.0
n/a	n/a	h6	78.0	2.0	LH	60.0	65.0	60.0	72.0	L	left	0.286400000095	30790.0
n/a	n/a	h6	78.0	3.0	LH	63.0	63.0	60.0	72.0	R	right	0.300199999809	30853.0
n/a	n/a	h6	78.0	4.0	LH	67.0	90.0	60.0	72.0	X	right	0.950400000095	30943.0
n/a	n/a	h6	78.0	5.0	LH	56.0	69.0	60.0	72.0	X	right	0.441599999905	31012.0
n/a	n/a	h6	78.0	6.0	LH	53.0	64.0	60.0	72.0	X	right	0.568599999905	31076.0
n/a	n/a	h6	78.0	7.0	LH	65.0	72.0	60.0	72.0	X	right	0.784700000286	31148.0
n/a	n/a	h6	78.0	8.0	LH	54.0	66.0	60.0	72.0	X	right	0.284299999714	31214.0
n/a	n/a	h6	78.0	9.0	LH	63.0	62.0	60.0	72.0	X	right	0.857599999905	31276.0
n/a	n/a	h1	79.0	0.0	LH	36.0	57.0	40.0	60.0	R	right	0.284	31333.0
n/a	n/a	h1	79.0	1.0	LH	29.0	52.0	40.0	60.0	R	right	0.234699999809	31385.0
n/a	n/a	h1	79.0	2.0	LH	47.0	60.0	40.0	60.0	R	right	0.350700000286	31445.0
n/a	n/a	h1	79.0	3.0	LH	45.0	56.0	40.0	60.0	L	left	0.334899999619	31490.0
n/a	n/a	h1	79.0	4.0	LH	31.0	50.0	40.0	60.0	X	right	0.268199999809	31540.0
