onset	duration	trial_type	trial_number	event_code	response_time	response	result
-21.0215114998	n/a	n/a	n/a	1	n/a	n/a	n/a
n/a	n/a	n/a	n/a	11	n/a	n/a	BREATHING_LOAD_RUN=NO
-21.0215114998	n/a	n/a	n/a	1	n/a	n/a	n/a
8.0	0	n/a	n/a	2	n/a	n/a	n/a
16.0161973001	n/a	3	0.0	3	n/a	n/a	n/a
16.0161973001	9	3	0.0	4	n/a	n/a	9
25.0320838001	2.5	3	0.0	5	n/a	n/a	2.5
25.4489004002	n/a	4_3_0	0.0	8	9.432703100144863	-1.0	20
25.7488448001	n/a	4_3_1	0.0	8	9.732647500000894	1.0	0
26.0485602999	n/a	4_3_2	0.0	8	10.032362999860196	1.0	-20
27.5479965	 n/a	3	0.0	6	n/a	n/a	n/a
27.5500298999	0.75	3	0.0	13	0.75	n/a	20
28.3031599	0.75	3	0.0	13	0.75	n/a	-20
29.0560670001	0.75	3	0.0	13	0.75	n/a	-20
29.8234966001	1	3	0.0	9	n/a	n/a	-20
29.8234966001	1	3	0.0	10	n/a	n/a	Aversive Pruning
30.8299031002	n/a	3	0.0	7	n/a	n/a	15.75
31.7644753	n/a	4	1.0	3	n/a	n/a	n/a
31.7644753	9	4	1.0	4	n/a	n/a	9
40.7796136001	2.5	4	1.0	5	n/a	n/a	2.5
41.8295274	n/a	2_4_0	1.0	8	10.06505209999159	1.0	-20
42.1964138001	n/a	2_4_1	1.0	8	10.431938500143588	1.0	-40
42.7465826003	n/a	2_4_2	1.0	8	10.982107300311327	-1.0	-20
43.1471700002	n/a	2_4_3	1.0	8	11.382694700267164	1.0	-40
43.296079	 n/a	4	1.0	6	n/a	n/a	n/a
43.2978655002	0.75	4	1.0	13	0.75	n/a	-20
44.0521884002	0.75	4	1.0	13	0.75	n/a	-20
44.8048884002	0.75	4	1.0	13	0.75	n/a	20
45.5586782	0.75	4	1.0	13	0.75	n/a	-20
46.3264287002	1	4	1.0	9	n/a	n/a	-40
46.3264287002	1	4	1.0	10	n/a	n/a	OLL Error
47.3316553002	n/a	4	1.0	7	n/a	n/a	16.5
48.2788596	n/a	4	2.0	3	n/a	n/a	n/a
48.2788596	9	4	2.0	4	n/a	n/a	9
57.2947553	2.5	4	2.0	5	n/a	n/a	2.5
58.1110614999	n/a	4_4_0	2.0	8	9.832201899960637	1.0	-20
59.8362693	1	4	2.0	9	n/a	n/a	-200
59.8362693	1	4	2.0	10	n/a	n/a	Miss
60.8428866002	n/a	4	2.0	7	n/a	n/a	16.5
64.7761128	n/a	5	3.0	3	n/a	n/a	n/a
64.7761128	9	5	3.0	4	n/a	n/a	9
73.7925285003	2.5	5	3.0	5	n/a	n/a	2.5
74.3594224001	n/a	5_5_0	3.0	8	9.583309600129725	1.0	-20
74.6261825999	n/a	5_5_1	3.0	8	9.850069799926134	1.0	-40
74.8759268001	n/a	5_5_2	3.0	8	10.09981400007382	1.0	100
75.1421829001	n/a	5_5_3	3.0	8	10.3660701001063	1.0	80
75.5594486003	n/a	5_5_4	3.0	8	10.783335800282657	1.0	60
76.3083342002	 n/a	5	3.0	6	n/a	n/a	n/a
76.3105988	0.75	5	3.0	13	0.75	n/a	-20
77.0643317001	0.75	5	3.0	13	0.75	n/a	-20
77.8186765001	0.75	5	3.0	13	0.75	n/a	140
78.5711042001	0.75	5	3.0	13	0.75	n/a	-20
79.3240940003	0.75	5	3.0	13	0.75	n/a	-20
80.0902502001	1	5	3.0	9	n/a	n/a	60
80.0902502001	1	5	3.0	10	n/a	n/a	Aversive Pruning
81.0961422999	n/a	5	3.0	7	n/a	n/a	17.25
82.0249280999	n/a	5	4.0	3	n/a	n/a	n/a
82.0249280999	9	5	4.0	4	n/a	n/a	9
91.0393212	2.5	5	4.0	5	n/a	n/a	2.5
91.6570949	n/a	2_5_0	4.0	8	9.632166800089179	1.0	-20
92.0070787002	n/a	2_5_1	4.0	8	9.982150600291787	1.0	-40
92.4233486	n/a	2_5_2	4.0	8	10.398420500103382	-1.0	-20
92.8901744001	n/a	2_5_3	4.0	8	10.865246300119908	1.0	-40
93.3400461003	n/a	2_5_4	4.0	8	11.315118000376971	1.0	-60
93.5395531002	 n/a	5	4.0	6	n/a	n/a	n/a
93.5416337	0.75	5	4.0	13	0.75	n/a	-20
94.2950905999	0.75	5	4.0	13	0.75	n/a	-20
95.0476567	0.75	5	4.0	13	0.75	n/a	20
95.8004705003	0.75	5	4.0	13	0.75	n/a	-20
96.5544533003	0.75	5	4.0	13	0.75	n/a	-20
97.3233179003	1	5	4.0	9	n/a	n/a	-60
97.3233179003	1	5	4.0	10	n/a	n/a	OLL Error
98.3292493001	n/a	5	4.0	7	n/a	n/a	17.25
99.2725591999	n/a	5	5.0	3	n/a	n/a	n/a
99.2725591999	9	5	5.0	4	n/a	n/a	9
108.2877126	2.5	5	5.0	5	n/a	n/a	2.5
108.8550409	n/a	6_5_0	5.0	8	9.582481699995695	1.0	-20
109.2212858	n/a	6_5_1	5.0	8	9.948726600036023	1.0	120
109.7213009	n/a	6_5_2	5.0	8	10.448741700034587	1.0	100
110.6707451	n/a	6_5_3	5.0	8	11.3981859004125	1.0	80
110.8324412	1	5	5.0	9	n/a	n/a	-200
110.8324412	1	5	5.0	10	n/a	n/a	Miss
111.837714	n/a	5	5.0	7	n/a	n/a	17.25
116.5201546	n/a	3	6.0	3	n/a	n/a	n/a
116.5201546	9	3	6.0	4	n/a	n/a	9
125.5362565	2.5	3	6.0	5	n/a	n/a	2.5
125.9532764	n/a	5_3_0	6.0	8	9.433121799957009	1.0	-20
126.2690011	n/a	5_3_1	6.0	8	9.748846500180662	1.0	-40
126.4527583	n/a	5_3_2	6.0	8	9.932603700086474	1.0	100
128.0520391	 n/a	3	6.0	6	n/a	n/a	n/a
128.0537252	0.75	3	6.0	13	0.75	n/a	-20
128.8053232	0.75	3	6.0	13	0.75	n/a	-20
129.5584324	0.75	3	6.0	13	0.75	n/a	140
130.3262831	1	3	6.0	9	n/a	n/a	100
130.3262831	1	3	6.0	10	n/a	n/a	ONLL Correct
131.3324505	n/a	3	6.0	7	n/a	n/a	15.75
132.2681009	n/a	3	7.0	3	n/a	n/a	n/a
132.2681009	9	3	7.0	4	n/a	n/a	9
141.2837354	2.5	3	7.0	5	n/a	n/a	2.5
141.9505707	n/a	3_3_0	7.0	8	9.682469800114633	-1.0	-70
143.828646	1	3	7.0	9	n/a	n/a	-200
143.828646	1	3	7.0	10	n/a	n/a	Miss
144.8346946	n/a	3	7.0	7	n/a	n/a	15.75
148.0161209	n/a	4	8.0	3	n/a	n/a	n/a
148.0161209	9	4	8.0	4	n/a	n/a	9
157.0317867	2.5	4	8.0	5	n/a	n/a	2.5
157.6654182	n/a	5_4_0	8.0	8	9.649297300260514	1.0	-20
157.9322308	n/a	5_4_1	8.0	8	9.916109899990259	1.0	-40
158.1985702	n/a	5_4_2	8.0	8	10.182449300307779	1.0	100
158.415248	n/a	5_4_3	8.0	8	10.399127100128679	1.0	80
159.5480217	 n/a	4	8.0	6	n/a	n/a	n/a
159.5501303	0.75	4	8.0	13	0.75	n/a	-20
160.3021021	0.75	4	8.0	13	0.75	n/a	-20
161.0557491	0.75	4	8.0	13	0.75	n/a	140
161.8094543	0.75	4	8.0	13	0.75	n/a	-20
162.5795587	1	4	8.0	9	n/a	n/a	80
162.5795587	1	4	8.0	10	n/a	n/a	ONLL Correct
163.5868517	n/a	4	8.0	7	n/a	n/a	16.5
164.5137002	n/a	3	9.0	3	n/a	n/a	n/a
164.5137002	9	3	9.0	4	n/a	n/a	9
173.5293721	2.5	3	9.0	5	n/a	n/a	2.5
173.9631965	n/a	6_3_0	9.0	8	9.449496299959721	1.0	-20
174.1969291	n/a	6_3_1	9.0	8	9.683228899724783	1.0	120
174.4130081	n/a	6_3_2	9.0	8	9.899307900108397	1.0	100
176.04567	 n/a	3	9.0	6	n/a	n/a	n/a
176.0475365	0.75	3	9.0	13	0.75	n/a	-20
176.8019015	0.75	3	9.0	13	0.75	n/a	140
177.5547085	0.75	3	9.0	13	0.75	n/a	-20
178.323182	1	3	9.0	9	n/a	n/a	100
178.323182	1	3	9.0	10	n/a	n/a	ONLL Correct
179.3290882	n/a	3	9.0	7	n/a	n/a	15.75
180.2760411	n/a	5	10.0	3	n/a	n/a	n/a
180.2760411	9	5	10.0	4	n/a	n/a	9
189.2775265	2.5	5	10.0	5	n/a	n/a	2.5
189.8283543	n/a	3_5_0	10.0	8	9.552313199732453	1.0	-20
190.1608504	n/a	3_5_1	10.0	8	9.884809299837796	1.0	-40
190.4941946	n/a	3_5_2	10.0	8	10.218153499998152	1.0	-60
190.7612896	n/a	3_5_3	10.0	8	10.485248500015588	1.0	-80
191.0614237	n/a	3_5_4	10.0	8	10.785382600035517	1.0	60
191.7939076	 n/a	5	10.0	6	n/a	n/a	n/a
191.7955115	0.75	5	10.0	13	0.75	n/a	-20
192.5482528	0.75	5	10.0	13	0.75	n/a	-20
193.3017962	0.75	5	10.0	13	0.75	n/a	-20
194.0550696	0.75	5	10.0	13	0.75	n/a	-20
194.8093629	0.75	5	10.0	13	0.75	n/a	140
195.5811808	1	5	10.0	9	n/a	n/a	60
195.5811808	1	5	10.0	10	n/a	n/a	ONLL Correct
196.5866341	n/a	5	10.0	7	n/a	n/a	17.25
197.5264805	n/a	4	11.0	3	n/a	n/a	n/a
197.5264805	9	4	11.0	4	n/a	n/a	9
206.5421148	2.5	4	11.0	5	n/a	n/a	2.5
207.5260612	n/a	1_4_0	11.0	8	9.999580699950457	1.0	140
208.0755514	n/a	1_4_1	11.0	8	10.549070899840443	1.0	120
208.4921477	n/a	1_4_2	11.0	8	10.965667199809102	1.0	100
208.9250241	n/a	1_4_3	11.0	8	11.39854359999299	-1.0	120
209.058485	 n/a	4	11.0	6	n/a	n/a	n/a
209.0603428	0.75	4	11.0	13	0.75	n/a	140
209.8132795	0.75	4	11.0	13	0.75	n/a	-20
210.5670736	0.75	4	11.0	13	0.75	n/a	-20
211.3205348	0.75	4	11.0	13	0.75	n/a	20
212.0898012	1	4	11.0	9	n/a	n/a	120
212.0898012	1	4	11.0	10	n/a	n/a	Aversive Pruning
213.0965497	n/a	4	11.0	7	n/a	n/a	16.5
214.0246884	n/a	4	12.0	3	n/a	n/a	n/a
214.0246884	9	4	12.0	4	n/a	n/a	9
223.0399014	2.5	4	12.0	5	n/a	n/a	2.5
223.4901852	n/a	3_4_0	12.0	8	9.465496799908578	1.0	-20
223.7739996	n/a	3_4_1	12.0	8	9.749311199877413	1.0	-40
224.0565625	n/a	3_4_2	12.0	8	10.031874099746345	1.0	-60
224.3235777	n/a	3_4_3	12.0	8	10.298889299854636	1.0	-80
225.5559688	 n/a	4	12.0	6	n/a	n/a	n/a
225.5575658	0.75	4	12.0	13	0.75	n/a	-20
226.3100115	0.75	4	12.0	13	0.75	n/a	-20
227.0628048	0.75	4	12.0	13	0.75	n/a	-20
227.8154681	0.75	4	12.0	13	0.75	n/a	-20
228.5831554	1	4	12.0	9	n/a	n/a	-80
228.5831554	1	4	12.0	10	n/a	n/a	OLL Error
229.5895468	n/a	4	12.0	7	n/a	n/a	16.5
230.5224704	n/a	5	13.0	3	n/a	n/a	n/a
230.5224704	9	5	13.0	4	n/a	n/a	9
239.5378974	2.5	5	13.0	5	n/a	n/a	2.5
239.9214492	n/a	4_5_0	13.0	8	9.398978800047187	1.0	-20
240.2051629	n/a	4_5_1	13.0	8	9.68269249983132	1.0	-40
240.4554774	n/a	4_5_2	13.0	8	9.933007000014186	1.0	-60
240.6884536	n/a	4_5_3	13.0	8	10.165983200073242	1.0	80
240.9549027	n/a	4_5_4	13.0	8	10.432432299945503	1.0	60
242.0543441	 n/a	5	13.0	6	n/a	n/a	n/a
242.0558372	0.75	5	13.0	13	0.75	n/a	-20
242.809526	0.75	5	13.0	13	0.75	n/a	-20
243.5620787	0.75	5	13.0	13	0.75	n/a	-20
244.3151598	0.75	5	13.0	13	0.75	n/a	140
245.0688396	0.75	5	13.0	13	0.75	n/a	-20
245.8376529	1	5	13.0	9	n/a	n/a	60
245.8376529	1	5	13.0	10	n/a	n/a	ONLL Correct
246.8428581	n/a	5	13.0	7	n/a	n/a	17.25
247.7701312	n/a	3	14.0	3	n/a	n/a	n/a
247.7701312	9	3	14.0	4	n/a	n/a	9
256.7859209	2.5	3	14.0	5	n/a	n/a	2.5
257.2697816	n/a	2_3_0	14.0	8	9.499650400131939	1.0	-20
257.5529195	n/a	2_3_1	14.0	8	9.782788299955428	1.0	-40
257.9021827	n/a	2_3_2	14.0	8	10.132051500026137	-1.0	-20
259.3020347	 n/a	3	14.0	6	n/a	n/a	n/a
259.3039022	0.75	3	14.0	13	0.75	n/a	-20
260.0572476	0.75	3	14.0	13	0.75	n/a	-20
260.8088663	0.75	3	14.0	13	0.75	n/a	20
261.5761896	1	3	14.0	9	n/a	n/a	-20
261.5761896	1	3	14.0	10	n/a	n/a	Aversive Pruning
262.5816243	n/a	3	14.0	7	n/a	n/a	15.75
263.5182381	n/a	3	15.0	3	n/a	n/a	n/a
263.5182381	9	3	15.0	4	n/a	n/a	9
272.5342003	2.5	3	15.0	5	n/a	n/a	2.5
272.9174646	n/a	1_3_0	15.0	8	9.399226499721408	1.0	140
273.1508608	n/a	1_3_1	15.0	8	9.632622699718922	1.0	120
273.3841027	n/a	1_3_2	15.0	8	9.86586460005492	1.0	100
275.049906	 n/a	3	15.0	6	n/a	n/a	n/a
275.0518765	0.75	3	15.0	13	0.75	n/a	140
275.8053011	0.75	3	15.0	13	0.75	n/a	-20
276.5565529	0.75	3	15.0	13	0.75	n/a	-20
277.3260318	1	3	15.0	9	n/a	n/a	100
277.3260318	1	3	15.0	10	n/a	n/a	ONLL Correct
278.3321525	n/a	3	15.0	7	n/a	n/a	15.75
279.2663096	n/a	4	16.0	3	n/a	n/a	n/a
279.2663096	9	4	16.0	4	n/a	n/a	9
288.281882	2.5	4	16.0	5	n/a	n/a	2.5
288.6318266	n/a	6_4_0	16.0	8	9.365516999736428	1.0	-20
288.9486164	n/a	6_4_1	16.0	8	9.682306800037622	1.0	120
289.2323447	n/a	6_4_2	16.0	8	9.966035099700091	1.0	100
289.4983322	n/a	6_4_3	16.0	8	10.232022599782796	1.0	80
290.7979614	 n/a	4	16.0	6	n/a	n/a	n/a
290.7997985	0.75	4	16.0	13	0.75	n/a	-20
291.5523273	0.75	4	16.0	13	0.75	n/a	140
292.3060778	0.75	4	16.0	13	0.75	n/a	-20
293.0587413	0.75	4	16.0	13	0.75	n/a	-20
293.8243704	1	4	16.0	9	n/a	n/a	80
293.8243704	1	4	16.0	10	n/a	n/a	ONLL Correct
294.8323757	n/a	4	16.0	7	n/a	n/a	16.5
295.7781399	n/a	5	17.0	3	n/a	n/a	n/a
295.7781399	9	5	17.0	4	n/a	n/a	9
304.7794647	2.5	5	17.0	5	n/a	n/a	2.5
305.6296818	n/a	1_5_0	17.0	8	9.851541900075972	1.0	140
305.8632383	n/a	1_5_1	17.0	8	10.085098400246352	1.0	120
306.0297534	n/a	1_5_2	17.0	8	10.251613500062378	1.0	100
306.1967334	n/a	1_5_3	17.0	8	10.418593500275163	1.0	80
306.3962576	n/a	1_5_4	17.0	8	10.618117700330911	1.0	60
307.2962483	 n/a	5	17.0	6	n/a	n/a	n/a
307.2984397	0.75	5	17.0	13	0.75	n/a	140
308.0499273	0.75	5	17.0	13	0.75	n/a	-20
308.8044213	0.75	5	17.0	13	0.75	n/a	-20
309.5567448	0.75	5	17.0	13	0.75	n/a	-20
310.3101155	0.75	5	17.0	13	0.75	n/a	-20
311.0778563	1	5	17.0	9	n/a	n/a	60
311.0778563	1	5	17.0	10	n/a	n/a	OLL Error
312.0835805	n/a	5	17.0	7	n/a	n/a	17.25
313.025818	n/a	3	18.0	3	n/a	n/a	n/a
313.025818	9	3	18.0	4	n/a	n/a	9
322.0270674	2.5	3	18.0	5	n/a	n/a	2.5
322.4780611	n/a	2_3_0	18.0	8	9.452243099920453	1.0	-20
322.7104803	n/a	2_3_1	18.0	8	9.684662300162016	1.0	-40
322.9445834	n/a	2_3_2	18.0	8	9.918765400070695	-1.0	-20
324.5440102	 n/a	3	18.0	6	n/a	n/a	n/a
324.5458697	0.75	3	18.0	13	0.75	n/a	-20
325.2985615	0.75	3	18.0	13	0.75	n/a	-20
326.0523928	0.75	3	18.0	13	0.75	n/a	20
326.8187773	1	3	18.0	9	n/a	n/a	-20
326.8187773	1	3	18.0	10	n/a	n/a	Aversive Pruning
327.8249721	n/a	3	18.0	7	n/a	n/a	15.75
328.7767003	n/a	5	19.0	3	n/a	n/a	n/a
328.7767003	9	5	19.0	4	n/a	n/a	9
337.7921212	2.5	5	19.0	5	n/a	n/a	2.5
338.2755943	n/a	4_5_0	19.0	8	9.498893999960274	1.0	-20
338.47561	n/a	4_5_1	19.0	8	9.69890969991684	1.0	-40
338.7089768	n/a	4_5_2	19.0	8	9.93227649992332	1.0	-60
338.8924904	n/a	4_5_3	19.0	8	10.115790099836888	1.0	80
339.0759372	n/a	4_5_4	19.0	8	10.299236900173126	1.0	60
340.3083431	 n/a	5	19.0	6	n/a	n/a	n/a
340.310657	0.75	5	19.0	13	0.75	n/a	-20
341.063154	0.75	5	19.0	13	0.75	n/a	-20
341.8172089	0.75	5	19.0	13	0.75	n/a	-20
342.569393	0.75	5	19.0	13	0.75	n/a	140
343.3228761	0.75	5	19.0	13	0.75	n/a	-20
344.0898033	1	5	19.0	9	n/a	n/a	60
344.0898033	1	5	19.0	10	n/a	n/a	ONLL Correct
345.0956556	n/a	5	19.0	7	n/a	n/a	17.25
346.024636	n/a	5	20.0	3	n/a	n/a	n/a
346.024636	9	5	20.0	4	n/a	n/a	9
355.0397336	2.5	5	20.0	5	n/a	n/a	2.5
355.5394204	n/a	2_5_0	20.0	8	9.514784400351346	1.0	-20
356.0067323	n/a	2_5_1	20.0	8	9.982096299994737	1.0	-40
356.4233272	n/a	2_5_2	20.0	8	10.398691200185569	-1.0	-20
356.8075169	n/a	2_5_3	20.0	8	10.782880900427699	1.0	-40
357.106567	n/a	2_5_4	20.0	8	11.08193100010976	1.0	-60
357.5560361	 n/a	5	20.0	6	n/a	n/a	n/a
357.5581204	0.75	5	20.0	13	0.75	n/a	-20
358.3120687	0.75	5	20.0	13	0.75	n/a	-20
359.0660241	0.75	5	20.0	13	0.75	n/a	20
359.8186382	0.75	5	20.0	13	0.75	n/a	-20
360.570557	0.75	5	20.0	13	0.75	n/a	-20
361.339316	1	5	20.0	9	n/a	n/a	-60
361.339316	1	5	20.0	10	n/a	n/a	OLL Error
362.3451278	n/a	5	20.0	7	n/a	n/a	17.25
363.2719337	n/a	4	21.0	3	n/a	n/a	n/a
363.2719337	9	4	21.0	4	n/a	n/a	9
372.2879355	2.5	4	21.0	5	n/a	n/a	2.5
372.8043408	n/a	5_4_0	21.0	8	9.532407100312412	1.0	-20
373.0883108	n/a	5_4_1	21.0	8	9.816377100069076	1.0	-40
373.4214	n/a	5_4_2	21.0	8	10.149466300383212	1.0	100
374.4715379	n/a	5_4_3	21.0	8	11.199604200199246	1.0	80
374.8041961	 n/a	4	21.0	6	n/a	n/a	n/a
374.8060572	0.75	4	21.0	13	0.75	n/a	-20
375.5587202	0.75	4	21.0	13	0.75	n/a	-20
376.3127539	0.75	4	21.0	13	0.75	n/a	140
377.0660622	0.75	4	21.0	13	0.75	n/a	-20
377.8345236	1	4	21.0	9	n/a	n/a	80
377.8345236	1	4	21.0	10	n/a	n/a	ONLL Correct
378.8403243	n/a	4	21.0	7	n/a	n/a	16.5
379.7700415	n/a	4	22.0	3	n/a	n/a	n/a
379.7700415	9	4	22.0	4	n/a	n/a	9
388.7856513	2.5	4	22.0	5	n/a	n/a	2.5
389.6357973	n/a	4_4_0	22.0	8	9.865755799692122	-1.0	20
389.9688315	n/a	4_4_1	22.0	8	10.198789999820294	1.0	0
390.2524357	n/a	4_4_2	22.0	8	10.482394199818373	1.0	-20
390.5857134	n/a	4_4_3	22.0	8	10.815671899821611	-1.0	0
391.3018862	 n/a	4	22.0	6	n/a	n/a	n/a
391.3035342	0.75	4	22.0	13	0.75	n/a	20
392.0564504	0.75	4	22.0	13	0.75	n/a	-20
392.8096989	0.75	4	22.0	13	0.75	n/a	-20
393.5623096	0.75	4	22.0	13	0.75	n/a	20
394.3317121	1	4	22.0	9	n/a	n/a	0
394.3317121	1	4	22.0	10	n/a	n/a	ONLL Error
395.3382698	n/a	4	22.0	7	n/a	n/a	16.5
396.2681047	n/a	3	23.0	3	n/a	n/a	n/a
396.2681047	9	3	23.0	4	n/a	n/a	9
405.2833849	2.5	3	23.0	5	n/a	n/a	2.5
407.0670831	n/a	6_3_0	23.0	8	10.798978400416672	1.0	-20
407.3170081	n/a	6_3_1	23.0	8	11.048903400078416	1.0	120
407.550057	n/a	6_3_2	23.0	8	11.281952300108971	1.0	100
407.7997367	 n/a	3	23.0	6	n/a	n/a	n/a
407.8015584	0.75	3	23.0	13	0.75	n/a	-20
408.5542063	0.75	3	23.0	13	0.75	n/a	140
409.3078694	0.75	3	23.0	13	0.75	n/a	-20
410.0746417	1	3	23.0	9	n/a	n/a	100
410.0746417	1	3	23.0	10	n/a	n/a	ONLL Correct
411.0803784	n/a	3	23.0	7	n/a	n/a	15.75
412.0161802	n/a	4	24.0	3	n/a	n/a	n/a
412.0161802	9	4	24.0	4	n/a	n/a	9
421.0315694	2.5	4	24.0	5	n/a	n/a	2.5
422.131199	n/a	1_4_0	24.0	8	10.115018799901007	1.0	140
422.515203	n/a	1_4_1	24.0	8	10.499022800009698	1.0	120
422.881443	n/a	1_4_2	24.0	8	10.8652627998963	1.0	100
423.3155922	n/a	1_4_3	24.0	8	11.299411999993026	1.0	80
423.5478908	 n/a	4	24.0	6	n/a	n/a	n/a
423.5492926	0.75	4	24.0	13	0.75	n/a	140
424.3013048	0.75	4	24.0	13	0.75	n/a	-20
425.0548297	0.75	4	24.0	13	0.75	n/a	-20
425.8081067	0.75	4	24.0	13	0.75	n/a	-20
426.5759006	1	4	24.0	9	n/a	n/a	80
426.5759006	1	4	24.0	10	n/a	n/a	OLL Error
427.5813841	n/a	4	24.0	7	n/a	n/a	16.5
428.5142801	n/a	3	25.0	3	n/a	n/a	n/a
428.5142801	9	3	25.0	4	n/a	n/a	9
437.5293743	2.5	3	25.0	5	n/a	n/a	2.5
437.9633136	n/a	4_3_0	25.0	8	9.449033499695359	-1.0	20
438.7628625	n/a	4_3_1	25.0	8	10.248582399915904	1.0	0
438.929672	n/a	4_3_2	25.0	8	10.415391899645329	1.0	-20
440.0471301	 n/a	3	25.0	6	n/a	n/a	n/a
440.0486987	0.75	3	25.0	13	0.75	n/a	20
440.802998	0.75	3	25.0	13	0.75	n/a	-20
441.5566316	0.75	3	25.0	13	0.75	n/a	-20
442.3233987	1	3	25.0	9	n/a	n/a	-20
442.3233987	1	3	25.0	10	n/a	n/a	Aversive Pruning
443.3298674	n/a	3	25.0	7	n/a	n/a	15.75
444.2758283	n/a	5	26.0	3	n/a	n/a	n/a
444.2758283	9	5	26.0	4	n/a	n/a	9
453.2775263	2.5	5	26.0	5	n/a	n/a	2.5
453.9945225	n/a	6_5_0	26.0	8	9.718694200273603	1.0	-20
454.2775544	n/a	6_5_1	26.0	8	10.001726100221275	1.0	120
454.5607513	n/a	6_5_2	26.0	8	10.284923000261188	1.0	100
454.860864	n/a	6_5_3	26.0	8	10.58503569988534	1.0	80
455.1443437	n/a	6_5_4	26.0	8	10.868515400215983	-1.0	100
455.7935348	 n/a	5	26.0	6	n/a	n/a	n/a
455.7951715	0.75	5	26.0	13	0.75	n/a	-20
456.549549	0.75	5	26.0	13	0.75	n/a	140
457.3032524	0.75	5	26.0	13	0.75	n/a	-20
458.0564781	0.75	5	26.0	13	0.75	n/a	-20
458.8095747	0.75	5	26.0	13	0.75	n/a	20
459.5768092	1	5	26.0	9	n/a	n/a	100
459.5768092	1	5	26.0	10	n/a	n/a	Aversive Pruning
460.5838536	n/a	5	26.0	7	n/a	n/a	17.25
461.5263989	n/a	3	27.0	3	n/a	n/a	n/a
461.5263989	9	3	27.0	4	n/a	n/a	9
470.542039	2.5	3	27.0	5	n/a	n/a	2.5
471.1421504	n/a	5_3_0	27.0	8	9.615751500241457	1.0	-20
471.6090142	n/a	5_3_1	27.0	8	10.08261530008167	1.0	-40
471.85891	n/a	5_3_2	27.0	8	10.332511099986732	1.0	100
473.0582132	 n/a	3	27.0	6	n/a	n/a	n/a
473.0602063	0.75	3	27.0	13	0.75	n/a	-20
473.8136459	0.75	3	27.0	13	0.75	n/a	-20
474.5677475	0.75	3	27.0	13	0.75	n/a	140
475.3368005	1	3	27.0	9	n/a	n/a	100
475.3368005	1	3	27.0	10	n/a	n/a	ONLL Correct
476.3434427	n/a	3	27.0	7	n/a	n/a	15.75
477.2745848	n/a	3	28.0	3	n/a	n/a	n/a
477.2745848	9	3	28.0	4	n/a	n/a	9
486.2896284	2.5	3	28.0	5	n/a	n/a	2.5
486.7733003	n/a	3_3_0	28.0	8	9.498715500347316	1.0	-20
487.1736138	n/a	3_3_1	28.0	8	9.899029000196606	-1.0	0
487.6227935	n/a	3_3_2	28.0	8	10.348208700306712	-1.0	-70
488.8060521	 n/a	3	28.0	6	n/a	n/a	n/a
488.8079401	0.75	3	28.0	13	0.75	n/a	-20
489.5614307	0.75	3	28.0	13	0.75	n/a	20
490.3133019	0.75	3	28.0	13	0.75	n/a	-70
491.0814973	1	3	28.0	9	n/a	n/a	-70
491.0814973	1	3	28.0	10	n/a	n/a	OLL Error
492.0873204	n/a	3	28.0	7	n/a	n/a	15.75
493.0224706	n/a	5	29.0	3	n/a	n/a	n/a
493.0224706	9	5	29.0	4	n/a	n/a	9
502.0381824	2.5	5	29.0	5	n/a	n/a	2.5
502.4217037	n/a	3_5_0	29.0	8	9.399233100004494	1.0	-20
502.6217225	n/a	3_5_1	29.0	8	9.599251900333913	1.0	-40
502.8051459	n/a	3_5_2	29.0	8	9.782675300259145	1.0	-60
503.0049107	n/a	3_5_3	29.0	8	9.982440100051463	1.0	-80
503.1715923	n/a	3_5_4	29.0	8	10.149121700320393	1.0	60
504.554141	 n/a	5	29.0	6	n/a	n/a	n/a
504.5556973	0.75	5	29.0	13	0.75	n/a	-20
505.3082932	0.75	5	29.0	13	0.75	n/a	-20
506.0614125	0.75	5	29.0	13	0.75	n/a	-20
506.8148175	0.75	5	29.0	13	0.75	n/a	-20
507.5681527	0.75	5	29.0	13	0.75	n/a	140
508.3377414	1	5	29.0	9	n/a	n/a	60
508.3377414	1	5	29.0	10	n/a	n/a	ONLL Correct
509.3434437	n/a	5	29.0	7	n/a	n/a	17.25
510.2701274	n/a	5	30.0	3	n/a	n/a	n/a
510.2701274	9	5	30.0	4	n/a	n/a	9
519.2857716	2.5	5	30.0	5	n/a	n/a	2.5
519.8855435	n/a	1_5_0	30.0	8	9.615416099783033	1.0	140
520.2021786	n/a	1_5_1	30.0	8	9.932051199954005	1.0	120
520.5195916	n/a	1_5_2	30.0	8	10.249464199878275	1.0	100
521.82718	1	5	30.0	9	n/a	n/a	-200
521.82718	1	5	30.0	10	n/a	n/a	Miss
522.8343459	n/a	5	30.0	7	n/a	n/a	17.25
527.5176875	n/a	3	31.0	3	n/a	n/a	n/a
527.5176875	9	3	31.0	4	n/a	n/a	9
536.5335026	2.5	3	31.0	5	n/a	n/a	2.5
536.8838677	n/a	1_3_0	31.0	8	9.36618020012975	1.0	140
537.1502376	n/a	1_3_1	31.0	8	9.632550100330263	1.0	120
537.3670205	n/a	1_3_2	31.0	8	9.849333000369368	1.0	100
539.0491706	 n/a	3	31.0	6	n/a	n/a	n/a
539.0502223	0.75	3	31.0	13	0.75	n/a	140
539.8036887	0.75	3	31.0	13	0.75	n/a	-20
540.5582039	0.75	3	31.0	13	0.75	n/a	-20
541.3276431	1	3	31.0	9	n/a	n/a	100
541.3276431	1	3	31.0	10	n/a	n/a	ONLL Correct
542.3317954	n/a	3	31.0	7	n/a	n/a	15.75
543.2657743	n/a	4	32.0	3	n/a	n/a	n/a
543.2657743	9	4	32.0	4	n/a	n/a	9
552.2813952	2.5	4	32.0	5	n/a	n/a	2.5
552.4153089	n/a	6_4_0	32.0	8	9.149534599855544	1.0	-20
552.6488091	n/a	6_4_1	32.0	8	9.38303479971364	1.0	120
552.8153642	n/a	6_4_2	32.0	8	9.549589899834244	1.0	100
552.9988402	n/a	6_4_3	32.0	8	9.733065899927167	1.0	80
554.7977081	 n/a	4	32.0	6	n/a	n/a	n/a
554.7990138	0.75	4	32.0	13	0.75	n/a	-20
555.5520179	0.75	4	32.0	13	0.75	n/a	140
556.3047297	0.75	4	32.0	13	0.75	n/a	-20
557.0590284	0.75	4	32.0	13	0.75	n/a	-20
557.8264102	1	4	32.0	9	n/a	n/a	80
557.8264102	1	4	32.0	10	n/a	n/a	ONLL Correct
558.8331052	n/a	4	32.0	7	n/a	n/a	16.5
559.7778309	n/a	5	33.0	3	n/a	n/a	n/a
559.7778309	9	5	33.0	4	n/a	n/a	9
568.779325	2.5	5	33.0	5	n/a	n/a	2.5
569.4467806	n/a	5_5_0	33.0	8	9.668949699960649	1.0	-20
569.6964036	n/a	5_5_1	33.0	8	9.918572700116783	1.0	-40
569.9298942	n/a	5_5_2	33.0	8	10.152063299901783	1.0	100
570.1297073	n/a	5_5_3	33.0	8	10.351876399945466	1.0	80
570.329058	n/a	5_5_4	33.0	8	10.5512271001935	1.0	60
571.2957067	 n/a	5	33.0	6	n/a	n/a	n/a
571.2976904	0.75	5	33.0	13	0.75	n/a	-20
572.0528009	0.75	5	33.0	13	0.75	n/a	-20
572.8056023	0.75	5	33.0	13	0.75	n/a	140
573.5585362	0.75	5	33.0	13	0.75	n/a	-20
574.311598	0.75	5	33.0	13	0.75	n/a	-20
575.078787	1	5	33.0	9	n/a	n/a	60
575.078787	1	5	33.0	10	n/a	n/a	Aversive Pruning
576.0847721	n/a	5	33.0	7	n/a	n/a	17.25
577.0257916	n/a	4	34.0	3	n/a	n/a	n/a
577.0257916	9	4	34.0	4	n/a	n/a	9
586.0270464	2.5	4	34.0	5	n/a	n/a	2.5
586.5445255	n/a	2_4_0	34.0	8	9.518733899574727	1.0	-20
586.7615194	n/a	2_4_1	34.0	8	9.735727799590675	1.0	-40
587.5941018	n/a	2_4_2	34.0	8	10.568310199771076	1.0	-60
587.8439591	n/a	2_4_3	34.0	8	10.818167499732228	-1.0	-130
588.5436322	 n/a	4	34.0	6	n/a	n/a	n/a
588.5456429	0.75	4	34.0	13	0.75	n/a	-20
589.2982105	0.75	4	34.0	13	0.75	n/a	-20
590.0508465	0.75	4	34.0	13	0.75	n/a	-20
590.8052245	0.75	4	34.0	13	0.75	n/a	-70
591.5738737	1	4	34.0	9	n/a	n/a	-130
591.5738737	1	4	34.0	10	n/a	n/a	OLL Error
592.5817905	n/a	4	34.0	7	n/a	n/a	16.5
593.5265207	n/a	4	35.0	3	n/a	n/a	n/a
593.5265207	9	4	35.0	4	n/a	n/a	9
602.5418496	2.5	4	35.0	5	n/a	n/a	2.5
603.3085103	n/a	3_4_0	35.0	8	9.781989600043744	1.0	-20
603.5922428	n/a	3_4_1	35.0	8	10.065722099971024	-1.0	0
604.2752842	n/a	3_4_2	35.0	8	10.74876349978149	1.0	-20
604.4919353	n/a	3_4_3	35.0	8	10.96541459998116	1.0	-40
605.0581065	 n/a	4	35.0	6	n/a	n/a	n/a
605.0597971	0.75	4	35.0	13	0.75	n/a	-20
605.8124878	0.75	4	35.0	13	0.75	n/a	20
606.566011	0.75	4	35.0	13	0.75	n/a	-20
607.3193742	0.75	4	35.0	13	0.75	n/a	-20
608.087794	1	4	35.0	9	n/a	n/a	-40
608.087794	1	4	35.0	10	n/a	n/a	OLL Error
609.0926419	n/a	4	35.0	7	n/a	n/a	16.5
610.0241521	n/a	4	36.0	3	n/a	n/a	n/a
610.0241521	9	4	36.0	4	n/a	n/a	9
619.0395369	2.5	4	36.0	5	n/a	n/a	2.5
619.4401589	n/a	3_4_0	36.0	8	9.416006800252942	1.0	-20
619.7392292	n/a	3_4_1	36.0	8	9.715077099855991	-1.0	0
620.039777	n/a	3_4_2	36.0	8	10.015624899882825	1.0	-20
620.1894563	n/a	3_4_3	36.0	8	10.165304200258106	1.0	-40
621.5561665	 n/a	4	36.0	6	n/a	n/a	n/a
621.5579452	0.75	4	36.0	13	0.75	n/a	-20
622.3124622	0.75	4	36.0	13	0.75	n/a	20
623.0657091	0.75	4	36.0	13	0.75	n/a	-20
623.8187975	0.75	4	36.0	13	0.75	n/a	-20
624.5857699	1	4	36.0	9	n/a	n/a	-40
624.5857699	1	4	36.0	10	n/a	n/a	OLL Error
625.5920474	n/a	4	36.0	7	n/a	n/a	16.5
626.5222169	n/a	3	37.0	3	n/a	n/a	n/a
626.5222169	9	3	37.0	4	n/a	n/a	9
635.5378057	2.5	3	37.0	5	n/a	n/a	2.5
636.0877681	n/a	2_3_0	37.0	8	9.565551199950278	1.0	-20
636.3212572	n/a	2_3_1	37.0	8	9.799040299840273	1.0	-40
636.8379054	n/a	2_3_2	37.0	8	10.31568849971518	-1.0	-20
638.0540075	 n/a	3	37.0	6	n/a	n/a	n/a
638.0559035	0.75	3	37.0	13	0.75	n/a	-20
638.8090657	0.75	3	37.0	13	0.75	n/a	-20
639.5619974	0.75	3	37.0	13	0.75	n/a	20
640.3326476	1	3	37.0	9	n/a	n/a	-20
640.3326476	1	3	37.0	10	n/a	n/a	Aversive Pruning
641.338182	n/a	3	37.0	7	n/a	n/a	15.75
642.2696975	n/a	3	38.0	3	n/a	n/a	n/a
642.2696975	9	3	38.0	4	n/a	n/a	9
651.2856752	2.5	3	38.0	5	n/a	n/a	2.5
651.6360664	n/a	6_3_0	38.0	8	9.366368900053203	1.0	-20
651.7696655	n/a	6_3_1	38.0	8	9.499968000221996	1.0	120
651.919467	n/a	6_3_2	38.0	8	9.649769500363616	1.0	100
653.8018421	 n/a	3	38.0	6	n/a	n/a	n/a
653.8035985	0.75	3	38.0	13	0.75	n/a	-20
654.5564584	0.75	3	38.0	13	0.75	n/a	140
655.309194	0.75	3	38.0	13	0.75	n/a	-20
656.0725477	1	3	38.0	9	n/a	n/a	100
656.0725477	1	3	38.0	10	n/a	n/a	ONLL Correct
657.0789587	n/a	3	38.0	7	n/a	n/a	15.75
658.01821	n/a	5	39.0	3	n/a	n/a	n/a
658.01821	9	5	39.0	4	n/a	n/a	9
667.0338396	2.5	5	39.0	5	n/a	n/a	2.5
667.6506039	n/a	5_5_0	39.0	8	9.632393899839373	1.0	-20
667.8831058	n/a	5_5_1	39.0	8	9.864895799662918	1.0	-40
668.0667116	n/a	5_5_2	39.0	8	10.048501599580051	1.0	100
668.2506057	n/a	5_5_3	39.0	8	10.232395699713381	1.0	80
668.4336396	n/a	5_5_4	39.0	8	10.415429599583149	1.0	60
669.5497143	 n/a	5	39.0	6	n/a	n/a	n/a
669.5513287	0.75	5	39.0	13	0.75	n/a	-20
670.3047415	0.75	5	39.0	13	0.75	n/a	-20
671.0564081	0.75	5	39.0	13	0.75	n/a	140
671.8108911	0.75	5	39.0	13	0.75	n/a	-20
672.564933	0.75	5	39.0	13	0.75	n/a	-20
673.3334511	1	5	39.0	9	n/a	n/a	60
673.3334511	1	5	39.0	10	n/a	n/a	Aversive Pruning
674.340282	n/a	5	39.0	7	n/a	n/a	17.25
675.266082	n/a	5	40.0	3	n/a	n/a	n/a
675.266082	9	5	40.0	4	n/a	n/a	9
684.2812637	2.5	5	40.0	5	n/a	n/a	2.5
684.9994199	n/a	1_5_0	40.0	8	9.733337900135666	1.0	140
685.2653468	n/a	1_5_1	40.0	8	9.99926479998976	1.0	120
685.5484434	n/a	1_5_2	40.0	8	10.282361400313675	-1.0	50
685.8651606	n/a	1_5_3	40.0	8	10.599078600294886	1.0	30
686.6986905	n/a	1_5_4	40.0	8	11.432608500123026	1.0	170
686.7976923	 n/a	5	40.0	6	n/a	n/a	n/a
686.7992221	0.75	5	40.0	13	0.75	n/a	140
687.5525456	0.75	5	40.0	13	0.75	n/a	-20
688.3056762	0.75	5	40.0	13	0.75	n/a	-70
689.0587696	0.75	5	40.0	13	0.75	n/a	-20
689.8124731	0.75	5	40.0	13	0.75	n/a	140
690.5799047	1	5	40.0	9	n/a	n/a	170
690.5799047	1	5	40.0	10	n/a	n/a	OLL Correct
691.5865451	n/a	5	40.0	7	n/a	n/a	17.25
692.5140825	n/a	4	41.0	3	n/a	n/a	n/a
692.5140825	9	4	41.0	4	n/a	n/a	9
701.529117	2.5	4	41.0	5	n/a	n/a	2.5
701.9792109	n/a	4_4_0	41.0	8	9.465128399897367	-1.0	20
702.3961021	n/a	4_4_1	41.0	8	9.882019599899651	1.0	0
703.0630884	n/a	4_4_2	41.0	8	10.549005900043994	-1.0	-70
704.0690337	1	4	41.0	9	n/a	n/a	-200
704.0690337	1	4	41.0	10	n/a	n/a	Miss
705.0752514	n/a	4	41.0	7	n/a	n/a	16.5
709.0282938	n/a	5	42.0	3	n/a	n/a	n/a
709.0282938	9	5	42.0	4	n/a	n/a	9
718.0440771	2.5	5	42.0	5	n/a	n/a	2.5
720.1102733	n/a	2_5_0	42.0	8	11.08197950012982	1.0	-20
720.569723	1	5	42.0	9	n/a	n/a	-200
720.569723	1	5	42.0	10	n/a	n/a	Miss
721.5758974	n/a	5	42.0	7	n/a	n/a	17.25
726.2756963	n/a	4	43.0	3	n/a	n/a	n/a
726.2756963	9	4	43.0	4	n/a	n/a	9
735.2917027	2.5	4	43.0	5	n/a	n/a	2.5
735.741378	n/a	1_4_0	43.0	8	9.46568170003593	1.0	140
736.0756339	n/a	1_4_1	43.0	8	9.799937600269914	1.0	120
736.4418722	n/a	1_4_2	43.0	8	10.166175900027156	1.0	100
736.7917687	n/a	1_4_3	43.0	8	10.516072400379926	-1.0	120
737.8079827	 n/a	4	43.0	6	n/a	n/a	n/a
737.8100782	0.75	4	43.0	13	0.75	n/a	140
738.563496	0.75	4	43.0	13	0.75	n/a	-20
739.3178238	0.75	4	43.0	13	0.75	n/a	-20
740.0707932	0.75	4	43.0	13	0.75	n/a	20
740.8393357	1	4	43.0	9	n/a	n/a	120
740.8393357	1	4	43.0	10	n/a	n/a	Aversive Pruning
741.8473479	n/a	4	43.0	7	n/a	n/a	16.5
742.7740374	n/a	3	44.0	3	n/a	n/a	n/a
742.7740374	9	3	44.0	4	n/a	n/a	9
751.7896456	2.5	3	44.0	5	n/a	n/a	2.5
754.3280553	1	3	44.0	9	n/a	n/a	-200
754.3280553	1	3	44.0	10	n/a	n/a	Miss
755.3347883	n/a	3	44.0	7	n/a	n/a	15.75
758.5211197	n/a	4	45.0	3	n/a	n/a	n/a
758.5211197	9	4	45.0	4	n/a	n/a	9
767.5375476	2.5	4	45.0	5	n/a	n/a	2.5
768.004693	n/a	5_4_0	45.0	8	9.483573299832642	1.0	-20
768.3377391	n/a	5_4_1	45.0	8	9.816619399935009	1.0	-40
768.62137	n/a	5_4_2	45.0	8	10.100250300019981	1.0	100
768.9046963	n/a	5_4_3	45.0	8	10.383576599881053	1.0	80
770.0535644	 n/a	4	45.0	6	n/a	n/a	n/a
770.055464	0.75	4	45.0	13	0.75	n/a	-20
770.8090004	0.75	4	45.0	13	0.75	n/a	-20
771.5617029	0.75	4	45.0	13	0.75	n/a	140
772.3145604	0.75	4	45.0	13	0.75	n/a	-20
773.0828671	1	4	45.0	9	n/a	n/a	80
773.0828671	1	4	45.0	10	n/a	n/a	ONLL Correct
774.0884601	n/a	4	45.0	7	n/a	n/a	16.5
775.0197985	n/a	5	46.0	3	n/a	n/a	n/a
775.0197985	9	5	46.0	4	n/a	n/a	9
784.0357362	2.5	5	46.0	5	n/a	n/a	2.5
784.5690619	n/a	3_5_0	46.0	8	9.549263400025666	-1.0	-70
785.1017664	n/a	3_5_1	46.0	8	10.08196790004149	1.0	-90
785.4858638	n/a	3_5_2	46.0	8	10.466065300162883	1.0	50
785.8191102	n/a	3_5_3	46.0	8	10.79931170027703	1.0	30
786.5801092	1	5	46.0	9	n/a	n/a	-200
786.5801092	1	5	46.0	10	n/a	n/a	Miss
787.5849152	n/a	5	46.0	7	n/a	n/a	17.25
792.2679006	n/a	5	47.0	3	n/a	n/a	n/a
792.2679006	9	5	47.0	4	n/a	n/a	9
801.2834647	2.5	5	47.0	5	n/a	n/a	2.5
801.8000874	n/a	6_5_0	47.0	8	9.532186800148338	1.0	-20
802.1168896	n/a	6_5_1	47.0	8	9.848989000078289	1.0	120
802.4171932	n/a	6_5_2	47.0	8	10.14929259987548	1.0	100
802.8997729	n/a	6_5_3	47.0	8	10.631872300058603	1.0	80
803.6502477	n/a	6_5_4	47.0	8	11.382347099948676	-1.0	100
803.7996007	 n/a	5	47.0	6	n/a	n/a	n/a
803.8016924	0.75	5	47.0	13	0.75	n/a	-20
804.5553283	0.75	5	47.0	13	0.75	n/a	140
805.3083739	0.75	5	47.0	13	0.75	n/a	-20
806.0607672	0.75	5	47.0	13	0.75	n/a	-20
806.8146653	0.75	5	47.0	13	0.75	n/a	20
807.5825382	1	5	47.0	9	n/a	n/a	100
807.5825382	1	5	47.0	10	n/a	n/a	Aversive Pruning
808.5884947	n/a	5	47.0	7	n/a	n/a	17.25
809.5157685	n/a	3	48.0	3	n/a	n/a	n/a
809.5157685	9	3	48.0	4	n/a	n/a	9
818.5308789	2.5	3	48.0	5	n/a	n/a	2.5
818.8812434	n/a	1_3_0	48.0	8	9.365474900230764	1.0	140
819.1979101	n/a	1_3_1	48.0	8	9.682141600176694	1.0	120
819.4647374	n/a	1_3_2	48.0	8	9.948968899901958	1.0	100
821.0474255	 n/a	3	48.0	6	n/a	n/a	n/a
821.049454	0.75	3	48.0	13	0.75	n/a	140
821.8029807	0.75	3	48.0	13	0.75	n/a	-20
822.5558715	0.75	3	48.0	13	0.75	n/a	-20
823.324084	1	3	48.0	9	n/a	n/a	100
823.324084	1	3	48.0	10	n/a	n/a	ONLL Correct
824.3291638	n/a	3	48.0	7	n/a	n/a	15.75
825.2772975	n/a	4	49.0	3	n/a	n/a	n/a
825.2772975	9	4	49.0	4	n/a	n/a	9
834.2788987	2.5	4	49.0	5	n/a	n/a	2.5
834.6293331	n/a	6_4_0	49.0	8	9.352035600226372	1.0	-20
834.8625813	n/a	6_4_1	49.0	8	9.585283800028263	1.0	120
835.0792482	n/a	6_4_2	49.0	8	9.801950700115412	1.0	100
835.26252	n/a	6_4_3	49.0	8	9.985222500283273	1.0	80
836.795445	 n/a	4	49.0	6	n/a	n/a	n/a
836.7975506	0.75	4	49.0	13	0.75	n/a	-20
837.5499286	0.75	4	49.0	13	0.75	n/a	140
838.302999	0.75	4	49.0	13	0.75	n/a	-20
839.0560909	0.75	4	49.0	13	0.75	n/a	-20
839.8264496	1	4	49.0	9	n/a	n/a	80
839.8264496	1	4	49.0	10	n/a	n/a	ONLL Correct
840.8314729	n/a	4	49.0	7	n/a	n/a	16.5
841.7753904	n/a	4	50.0	3	n/a	n/a	n/a
841.7753904	9	4	50.0	4	n/a	n/a	9
850.7768598	2.5	4	50.0	5	n/a	n/a	2.5
851.1437927	n/a	2_4_0	50.0	8	9.368402299936859	1.0	-20
851.5437236	n/a	2_4_1	50.0	8	9.768333199899645	1.0	-40
851.8439055	n/a	2_4_2	50.0	8	10.068515100050716	-1.0	-20
852.1097608	n/a	2_4_3	50.0	8	10.334370399825275	1.0	-40
853.2934543	 n/a	4	50.0	6	n/a	n/a	n/a
853.2952202	0.75	4	50.0	13	0.75	n/a	-20
854.0478975	0.75	4	50.0	13	0.75	n/a	-20
854.8007758	0.75	4	50.0	13	0.75	n/a	20
855.5533984	0.75	4	50.0	13	0.75	n/a	-20
856.322551	1	4	50.0	9	n/a	n/a	-40
856.322551	1	4	50.0	10	n/a	n/a	OLL Error
857.3289189	n/a	4	50.0	7	n/a	n/a	16.5
858.2759919	n/a	5	51.0	3	n/a	n/a	n/a
858.2759919	9	5	51.0	4	n/a	n/a	9
867.2915025	2.5	5	51.0	5	n/a	n/a	2.5
867.6089555	n/a	4_5_0	51.0	8	9.332963599823417	1.0	-20
867.8252491	n/a	4_5_1	51.0	8	9.549257199745623	1.0	-40
868.0419977	n/a	4_5_2	51.0	8	9.766005799639972	1.0	-60
868.2086033	n/a	4_5_3	51.0	8	9.932611399795858	1.0	80
868.3753381	n/a	4_5_4	51.0	8	10.099346200004222	1.0	60
869.80794	 n/a	5	51.0	6	n/a	n/a	n/a
869.809352	0.75	5	51.0	13	0.75	n/a	-20
870.5634144	0.75	5	51.0	13	0.75	n/a	-20
871.3181813	0.75	5	51.0	13	0.75	n/a	-20
872.0717773	0.75	5	51.0	13	0.75	n/a	140
872.8259134	0.75	5	51.0	13	0.75	n/a	-20
873.5937315	1	5	51.0	9	n/a	n/a	60
873.5937315	1	5	51.0	10	n/a	n/a	ONLL Correct
874.6008104	n/a	5	51.0	7	n/a	n/a	17.25
875.5239596	n/a	3	52.0	3	n/a	n/a	n/a
875.5239596	9	3	52.0	4	n/a	n/a	9
884.539028	2.5	3	52.0	5	n/a	n/a	2.5
885.156603	n/a	4_3_0	52.0	8	9.632643399760127	-1.0	20
885.8397202	n/a	4_3_1	52.0	8	10.315760599914936	1.0	0
886.0732036	n/a	4_3_2	52.0	8	10.549243999645112	1.0	-20
887.0555247	 n/a	3	52.0	6	n/a	n/a	n/a
887.0573295	0.75	3	52.0	13	0.75	n/a	20
887.8104465	0.75	3	52.0	13	0.75	n/a	-20
888.5645234	0.75	3	52.0	13	0.75	n/a	-20
889.3348231	1	3	52.0	9	n/a	n/a	-20
889.3348231	1	3	52.0	10	n/a	n/a	Aversive Pruning
890.3409795	n/a	3	52.0	7	n/a	n/a	15.75
891.2719142	n/a	3	53.0	3	n/a	n/a	n/a
891.2719142	9	3	53.0	4	n/a	n/a	9
900.2875311	2.5	3	53.0	5	n/a	n/a	2.5
900.7709042	n/a	5_3_0	53.0	8	9.498990000225604	1.0	-20
901.0038489	n/a	5_3_1	53.0	8	9.73193470016122	1.0	-40
901.2044505	n/a	5_3_2	53.0	8	9.93253630027175	1.0	100
902.8036494	 n/a	3	53.0	6	n/a	n/a	n/a
902.8053829	0.75	3	53.0	13	0.75	n/a	-20
903.5575389	0.75	3	53.0	13	0.75	n/a	-20
904.310853	0.75	3	53.0	13	0.75	n/a	140
905.0795315	1	3	53.0	9	n/a	n/a	100
905.0795315	1	3	53.0	10	n/a	n/a	ONLL Correct
906.0849063	n/a	3	53.0	7	n/a	n/a	15.75
907.0199331	n/a	4	54.0	3	n/a	n/a	n/a
907.0199331	9	4	54.0	4	n/a	n/a	9
916.0351621	2.5	4	54.0	5	n/a	n/a	2.5
917.1188536	n/a	3_4_0	54.0	8	10.098920499905944	1.0	-20
917.4189339	n/a	3_4_1	54.0	8	10.399000799749047	-1.0	0
917.6688369	n/a	3_4_2	54.0	8	10.64890379970893	1.0	-20
917.8353812	n/a	3_4_3	54.0	8	10.8154480997473	1.0	-40
918.5512989	 n/a	4	54.0	6	n/a	n/a	n/a
918.5527621	0.75	4	54.0	13	0.75	n/a	-20
919.305034	0.75	4	54.0	13	0.75	n/a	20
920.0565356	0.75	4	54.0	13	0.75	n/a	-20
920.8086085	0.75	4	54.0	13	0.75	n/a	-20
921.5770065	1	4	54.0	9	n/a	n/a	-40
921.5770065	1	4	54.0	10	n/a	n/a	OLL Error
922.583029	n/a	4	54.0	7	n/a	n/a	16.5
923.5176242	n/a	3	55.0	3	n/a	n/a	n/a
923.5176242	9	3	55.0	4	n/a	n/a	9
932.5333907	2.5	3	55.0	5	n/a	n/a	2.5
933.8172011	n/a	2_3_0	55.0	8	10.299576899968088	1.0	-20
934.4170941	n/a	2_3_1	55.0	8	10.899469899944961	1.0	-40
934.6502174	n/a	2_3_2	55.0	8	11.13259319961071	1.0	-60
935.0493012	 n/a	3	55.0	6	n/a	n/a	n/a
935.0506335	0.75	3	55.0	13	0.75	n/a	-20
935.8039534	0.75	3	55.0	13	0.75	n/a	-20
936.5564363	0.75	3	55.0	13	0.75	n/a	-20
937.3242933	1	3	55.0	9	n/a	n/a	-60
937.3242933	1	3	55.0	10	n/a	n/a	OLL Error
938.3301409	n/a	3	55.0	7	n/a	n/a	15.75
939.2653931	n/a	3	56.0	3	n/a	n/a	n/a
939.2653931	9	3	56.0	4	n/a	n/a	9
948.2808315	2.5	3	56.0	5	n/a	n/a	2.5
948.8816541	n/a	6_3_0	56.0	8	9.616260999813676	1.0	-20
949.181237	n/a	6_3_1	56.0	8	9.915843899827449	1.0	120
949.4312499	n/a	6_3_2	56.0	8	10.165856800042091	1.0	100
950.7971227	 n/a	3	56.0	6	n/a	n/a	n/a
950.7983537	0.75	3	56.0	13	0.75	n/a	-20
951.5511835	0.75	3	56.0	13	0.75	n/a	140
952.3039209	0.75	3	56.0	13	0.75	n/a	-20
953.0730971	1	3	56.0	9	n/a	n/a	100
953.0730971	1	3	56.0	10	n/a	n/a	ONLL Correct
954.0799405	n/a	3	56.0	7	n/a	n/a	15.75
955.0275715	n/a	5	57.0	3	n/a	n/a	n/a
955.0275715	9	5	57.0	4	n/a	n/a	9
964.0291483	2.5	5	57.0	5	n/a	n/a	2.5
964.7462187	n/a	5_5_0	57.0	8	9.718647199682893	1.0	-20
965.0628771	n/a	5_5_1	57.0	8	10.035305599682033	1.0	-40
965.3456639	n/a	5_5_2	57.0	8	10.318092399742453	1.0	100
965.5791792	n/a	5_5_3	57.0	8	10.551607700064777	1.0	80
965.7957608	n/a	5_5_4	57.0	8	10.768189299851656	1.0	60
966.5459962	 n/a	5	57.0	6	n/a	n/a	n/a
966.5479379	0.75	5	57.0	13	0.75	n/a	-20
967.3022014	0.75	5	57.0	13	0.75	n/a	-20
968.0554323	0.75	5	57.0	13	0.75	n/a	140
968.8083787	0.75	5	57.0	13	0.75	n/a	-20
969.5620408	0.75	5	57.0	13	0.75	n/a	-20
970.3317542	1	5	57.0	9	n/a	n/a	60
970.3317542	1	5	57.0	10	n/a	n/a	Aversive Pruning
971.3388918	n/a	5	57.0	7	n/a	n/a	17.25
972.2781127	n/a	5	58.0	3	n/a	n/a	n/a
972.2781127	9	5	58.0	4	n/a	n/a	9
981.2935512	2.5	5	58.0	5	n/a	n/a	2.5
981.8770038	n/a	1_5_0	58.0	8	9.598891099914908	1.0	140
982.2105409	n/a	1_5_1	58.0	8	9.932428199797867	1.0	120
982.5271399	n/a	1_5_2	58.0	8	10.2490272000432	-1.0	50
982.8273449	n/a	1_5_3	58.0	8	10.549232199788094	1.0	30
983.0268418	n/a	1_5_4	58.0	8	10.748729099985214	1.0	170
983.8097338	 n/a	5	58.0	6	n/a	n/a	n/a
983.8114113	0.75	5	58.0	13	0.75	n/a	140
984.5640153	0.75	5	58.0	13	0.75	n/a	-20
985.3179753	0.75	5	58.0	13	0.75	n/a	-70
986.0707756	0.75	5	58.0	13	0.75	n/a	-20
986.8230871	0.75	5	58.0	13	0.75	n/a	140
987.5931845	1	5	58.0	9	n/a	n/a	170
987.5931845	1	5	58.0	10	n/a	n/a	OLL Correct
988.5985151	n/a	5	58.0	7	n/a	n/a	17.25
989.5260967	n/a	5	59.0	3	n/a	n/a	n/a
989.5260967	9	5	59.0	4	n/a	n/a	9
998.5416063	2.5	5	59.0	5	n/a	n/a	2.5
999.0752494	n/a	2_5_0	59.0	8	9.549152699764818	1.0	-20
999.4413246	n/a	2_5_1	59.0	8	9.915227899793537	-1.0	-90
999.791491	n/a	2_5_2	59.0	8	10.265394299756737	1.0	-110
1000.0082867	n/a	2_5_3	59.0	8	10.482189999893306	1.0	30
1000.2081629	n/a	2_5_4	59.0	8	10.682066199835392	1.0	10
1001.0576456	 n/a	5	59.0	6	n/a	n/a	n/a
1001.0591243	0.75	5	59.0	13	0.75	n/a	-20
1001.8120579	0.75	5	59.0	13	0.75	n/a	-70
1002.5653051	0.75	5	59.0	13	0.75	n/a	-20
1003.3173349	0.75	5	59.0	13	0.75	n/a	140
1004.071938	0.75	5	59.0	13	0.75	n/a	-20
1004.8404256	1	5	59.0	9	n/a	n/a	10
1004.8404256	1	5	59.0	10	n/a	n/a	OLL Correct
1005.8457514	n/a	5	59.0	7	n/a	n/a	17.25
1006.7734148	n/a	5	60.0	3	n/a	n/a	n/a
1006.7734148	9	5	60.0	4	n/a	n/a	9
1015.7889034	2.5	5	60.0	5	n/a	n/a	2.5
1016.2725434	n/a	3_5_0	60.0	8	9.499128600116821	-1.0	-70
1016.6227374	n/a	3_5_1	60.0	8	9.84932260029018	1.0	-90
1016.8894095	n/a	3_5_2	60.0	8	10.115994700230658	1.0	50
1017.0394747	n/a	3_5_3	60.0	8	10.266059900168331	1.0	30
1017.2059599	n/a	3_5_4	60.0	8	10.432545100338755	1.0	10
1018.3056189	 n/a	5	60.0	6	n/a	n/a	n/a
1018.3074234	0.75	5	60.0	13	0.75	n/a	-70
1019.0611955	0.75	5	60.0	13	0.75	n/a	-20
1019.8147876	0.75	5	60.0	13	0.75	n/a	140
1020.5679076	0.75	5	60.0	13	0.75	n/a	-20
1021.3224319	0.75	5	60.0	13	0.75	n/a	-20
1022.0910091	1	5	60.0	9	n/a	n/a	10
1022.0910091	1	5	60.0	10	n/a	n/a	ONLL Error
1023.0963594	n/a	5	60.0	7	n/a	n/a	17.25
1024.0210452	n/a	4	61.0	3	n/a	n/a	n/a
1024.0210452	9	4	61.0	4	n/a	n/a	9
1033.0371218	2.5	4	61.0	5	n/a	n/a	2.5
1033.4872592	n/a	1_4_0	61.0	8	9.46621400024742	1.0	140
1033.7044402	n/a	1_4_1	61.0	8	9.683395000174643	1.0	120
1033.8709697	n/a	1_4_2	61.0	8	9.849924500100316	1.0	100
1034.1370987	n/a	1_4_3	61.0	8	10.116053500212727	-1.0	120
1035.5375969	 n/a	4	61.0	6	n/a	n/a	n/a
1035.5385913	0.75	4	61.0	13	0.75	n/a	140
1036.2899923	0.75	4	61.0	13	0.75	n/a	-20
1037.0423512	0.75	4	61.0	13	0.75	n/a	-20
1037.7959075	0.75	4	61.0	13	0.75	n/a	20
1038.5621367	1	4	61.0	9	n/a	n/a	120
1038.5621367	1	4	61.0	10	n/a	n/a	Aversive Pruning
1039.5685679	n/a	4	61.0	7	n/a	n/a	16.5
1040.5200917	n/a	3	62.0	3	n/a	n/a	n/a
1040.5200917	9	3	62.0	4	n/a	n/a	9
1049.5350273	2.5	3	62.0	5	n/a	n/a	2.5
1049.9181022	n/a	3_3_0	62.0	8	9.39801049977541	1.0	-20
1050.3181143	n/a	3_3_1	62.0	8	9.798022599890828	-1.0	0
1050.6511176	n/a	3_3_2	62.0	8	10.131025899667293	1.0	-20
1052.0509296	 n/a	3	62.0	6	n/a	n/a	n/a
1052.0520104	0.75	3	62.0	13	0.75	n/a	-20
1052.8048427	0.75	3	62.0	13	0.75	n/a	20
1053.5567823	0.75	3	62.0	13	0.75	n/a	-20
1054.3253775	1	3	62.0	9	n/a	n/a	-20
1054.3253775	1	3	62.0	10	n/a	n/a	Aversive Pruning
1055.3322446	n/a	3	62.0	7	n/a	n/a	15.75
1056.2674693	n/a	4	63.0	3	n/a	n/a	n/a
1056.2674693	9	4	63.0	4	n/a	n/a	9
1065.2827539	2.5	4	63.0	5	n/a	n/a	2.5
1065.6831249	n/a	4_4_0	63.0	8	9.415655600372704	1.0	-20
1065.8829436	n/a	4_4_1	63.0	8	9.615474299993368	1.0	-40
1066.0828819	n/a	4_4_2	63.0	8	9.815412600059062	1.0	-60
1066.2496674	n/a	4_4_3	63.0	8	9.9821981000714	1.0	80
1067.7991415	 n/a	4	63.0	6	n/a	n/a	n/a
1067.8001273	0.75	4	63.0	13	0.75	n/a	-20
1068.5517388	0.75	4	63.0	13	0.75	n/a	-20
1069.3041633	0.75	4	63.0	13	0.75	n/a	-20
1070.0556392	0.75	4	63.0	13	0.75	n/a	140
1070.8202986	1	4	63.0	9	n/a	n/a	80
1070.8202986	1	4	63.0	10	n/a	n/a	ONLL Correct
1071.8273027	n/a	4	63.0	7	n/a	n/a	16.5
1072.7653999	n/a	3	64.0	3	n/a	n/a	n/a
1072.7653999	9	3	64.0	4	n/a	n/a	9
1081.7804271	2.5	3	64.0	5	n/a	n/a	2.5
1082.2475206	n/a	4_3_0	64.0	8	9.48212069971487	-1.0	20
1083.2643631	n/a	4_3_1	64.0	8	10.498963200021537	1.0	0
1083.4806411	n/a	4_3_2	64.0	8	10.71524119982496	1.0	-20
1084.2969616	 n/a	3	64.0	6	n/a	n/a	n/a
1084.2980118	0.75	3	64.0	13	0.75	n/a	20
1085.0494317	0.75	3	64.0	13	0.75	n/a	-20
1085.8022863	0.75	3	64.0	13	0.75	n/a	-20
1086.5691898	1	3	64.0	9	n/a	n/a	-20
1086.5691898	1	3	64.0	10	n/a	n/a	Aversive Pruning
1087.576767	n/a	3	64.0	7	n/a	n/a	15.75
1088.5272115	n/a	4	65.0	3	n/a	n/a	n/a
1088.5272115	9	4	65.0	4	n/a	n/a	9
1097.5287741	2.5	4	65.0	5	n/a	n/a	2.5
1097.9788726	n/a	5_4_0	65.0	8	9.451661099679768	1.0	-20
1098.2790828	n/a	5_4_1	65.0	8	9.751871299929915	1.0	-40
1098.5290252	n/a	5_4_2	65.0	8	10.001813699956985	1.0	100
1098.7287083	n/a	5_4_3	65.0	8	10.201496799942106	1.0	80
1100.0450405	 n/a	4	65.0	6	n/a	n/a	n/a
1100.047523	0.75	4	65.0	13	0.75	n/a	-20
1100.8005921	0.75	4	65.0	13	0.75	n/a	-20
1101.5517869	0.75	4	65.0	13	0.75	n/a	140
1102.3043089	0.75	4	65.0	13	0.75	n/a	-20
1103.0723632	1	4	65.0	9	n/a	n/a	80
1103.0723632	1	4	65.0	10	n/a	n/a	ONLL Correct
1104.0792672	n/a	4	65.0	7	n/a	n/a	16.5
1105.0250771	n/a	5	66.0	3	n/a	n/a	n/a
1105.0250771	9	5	66.0	4	n/a	n/a	9
1114.0262981	2.5	5	66.0	5	n/a	n/a	2.5
1114.4601787	n/a	6_5_0	66.0	8	9.435101600363849	1.0	-20
1114.7933755	n/a	6_5_1	66.0	8	9.76829840010032	1.0	120
1115.2270382	n/a	6_5_2	66.0	8	10.201961100101473	1.0	100
1116.0433931	n/a	6_5_3	66.0	8	11.018316000234337	1.0	80
1116.3432861	n/a	6_5_4	66.0	8	11.318209000397475	1.0	60
1116.5426658	 n/a	5	66.0	6	n/a	n/a	n/a
1116.5437367	0.75	5	66.0	13	0.75	n/a	-20
1117.2971916	0.75	5	66.0	13	0.75	n/a	140
1118.0502187	0.75	5	66.0	13	0.75	n/a	-20
1118.8042155	0.75	5	66.0	13	0.75	n/a	-20
1119.5566214	0.75	5	66.0	13	0.75	n/a	-20
1120.3244334	1	5	66.0	9	n/a	n/a	60
1120.3244334	1	5	66.0	10	n/a	n/a	OLL Error
1121.3302318	n/a	5	66.0	7	n/a	n/a	17.25
1122.2758308	n/a	3	67.0	3	n/a	n/a	n/a
1122.2758308	9	3	67.0	4	n/a	n/a	9
1131.2906944	2.5	3	67.0	5	n/a	n/a	2.5
1131.77519	n/a	1_3_0	67.0	8	9.499359199777246	1.0	140
1132.0249472	n/a	1_3_1	67.0	8	9.749116399791092	1.0	120
1132.2081134	n/a	1_3_2	67.0	8	9.93228260008618	1.0	100
1133.8073141	 n/a	3	67.0	6	n/a	n/a	n/a
1133.8084332	0.75	3	67.0	13	0.75	n/a	140
1134.5607123	0.75	3	67.0	13	0.75	n/a	-20
1135.3140092	0.75	3	67.0	13	0.75	n/a	-20
1136.0815517	1	3	67.0	9	n/a	n/a	100
1136.0815517	1	3	67.0	10	n/a	n/a	ONLL Correct
1137.0868195	n/a	3	67.0	7	n/a	n/a	15.75
1138.0238648	n/a	4	68.0	3	n/a	n/a	n/a
1138.0238648	9	4	68.0	4	n/a	n/a	9
1147.0392449	2.5	4	68.0	5	n/a	n/a	2.5
1147.4225502	n/a	6_4_0	68.0	8	9.398685399908572	1.0	-20
1147.6561787	n/a	6_4_1	68.0	8	9.632313900161536	1.0	120
1147.8393227	n/a	6_4_2	68.0	8	9.815457900054751	1.0	100
1148.1561722	n/a	6_4_3	68.0	8	10.132307399995623	1.0	80
1149.5554611	 n/a	4	68.0	6	n/a	n/a	n/a
1149.5571153	0.75	4	68.0	13	0.75	n/a	-20
1150.3095432	0.75	4	68.0	13	0.75	n/a	140
1151.0632316	0.75	4	68.0	13	0.75	n/a	-20
1151.8160335	0.75	4	68.0	13	0.75	n/a	-20
1152.5840915	1	4	68.0	9	n/a	n/a	80
1152.5840915	1	4	68.0	10	n/a	n/a	ONLL Correct
1153.5903747	n/a	4	68.0	7	n/a	n/a	16.5
1154.5218801	n/a	4	69.0	3	n/a	n/a	n/a
1154.5218801	9	4	69.0	4	n/a	n/a	9
1163.5370273	2.5	4	69.0	5	n/a	n/a	2.5
1164.0037195	n/a	2_4_0	69.0	8	9.481839400250463	1.0	-20
1164.3373684	n/a	2_4_1	69.0	8	9.815488300286232	-1.0	-90
1165.1037501	n/a	2_4_2	69.0	8	10.58187000034377	1.0	-110
1165.3041194	n/a	2_4_3	69.0	8	10.782239300198851	1.0	30
1166.0535558	 n/a	4	69.0	6	n/a	n/a	n/a
1166.055552	0.75	4	69.0	13	0.75	n/a	-20
1166.8092652	0.75	4	69.0	13	0.75	n/a	-70
1167.5620061	0.75	4	69.0	13	0.75	n/a	-20
1168.3151826	0.75	4	69.0	13	0.75	n/a	140
1169.0821399	1	4	69.0	9	n/a	n/a	30
1169.0821399	1	4	69.0	10	n/a	n/a	OLL Correct
1170.0888909	n/a	4	69.0	7	n/a	n/a	16.5
1171.0193339	n/a	5	70.0	3	n/a	n/a	n/a
1171.0193339	9	5	70.0	4	n/a	n/a	9
1180.034852	2.5	5	70.0	5	n/a	n/a	2.5
1180.9516832	n/a	4_5_0	70.0	8	9.932349300011992	1.0	-20
1181.268533	n/a	4_5_1	70.0	8	10.249199100304397	1.0	-40
1181.5179943	n/a	4_5_2	70.0	8	10.498660400044171	1.0	-60
1181.7016159	n/a	4_5_3	70.0	8	10.682282000314443	1.0	80
1181.885082	n/a	4_5_4	70.0	8	10.865748099982738	1.0	60
1182.551021	 n/a	5	70.0	6	n/a	n/a	n/a
1182.5524387	0.75	5	70.0	13	0.75	n/a	-20
1183.3065597	0.75	5	70.0	13	0.75	n/a	-20
1184.0600781	0.75	5	70.0	13	0.75	n/a	-20
1184.8125104	0.75	5	70.0	13	0.75	n/a	140
1185.5667696	0.75	5	70.0	13	0.75	n/a	-20
1186.3327809	1	5	70.0	9	n/a	n/a	60
1186.3327809	1	5	70.0	10	n/a	n/a	ONLL Correct
1187.3403786	n/a	5	70.0	7	n/a	n/a	17.25
1188.266993	n/a	3	71.0	3	n/a	n/a	n/a
1188.266993	9	3	71.0	4	n/a	n/a	9
1197.2827254	2.5	3	71.0	5	n/a	n/a	2.5
1197.6331602	n/a	5_3_0	71.0	8	9.366167199797927	1.0	-20
1197.8665721	n/a	5_3_1	71.0	8	9.599579100031406	1.0	-40
1198.0830097	n/a	5_3_2	71.0	8	9.816016700118778	1.0	100
1199.7989156	 n/a	3	71.0	6	n/a	n/a	n/a
1199.8001324	0.75	3	71.0	13	0.75	n/a	-20
1200.552703	0.75	3	71.0	13	0.75	n/a	-20
1201.3051591	0.75	3	71.0	13	0.75	n/a	140
1202.0715086	1	3	71.0	9	n/a	n/a	100
1202.0715086	1	3	71.0	10	n/a	n/a	ONLL Correct
1203.0773689	n/a	3	71.0	7	n/a	n/a	15.75
1207.0272526	n/a	n/a	n/a	99	n/a	n/a	n/a
