onset	duration	trial_type	trial_number	event_code	response_time	response	result
-157.7236114	n/a	n/a	n/a	1	n/a	n/a	n/a
n/a	n/a	n/a	n/a	11	n/a	n/a	BREATHING_LOAD_RUN=YES
-157.7236114	n/a	n/a	n/a	1	n/a	n/a	n/a
-144.54638	n/a	4	0.0	3	n/a	n/a	n/a
-144.54638	9	4	0.0	4	n/a	n/a	9
-135.530998	2.5	4	0.0	5	n/a	n/a	3
-134.9969923	n/a	2_4_0	0.0	8	9.54938770039007	1.0	-20
-134.5965329	n/a	2_4_1	0.0	8	9.949847100302575	-1.0	-90
-133.9640399	n/a	2_4_2	0.0	8	10.582340100314466	-1.0	-70
-133.2139323	n/a	2_4_3	0.0	8	11.332447700202465	1.0	-90
-133.0308197	 n/a	4	0.0	6	n/a	n/a	n/a
-133.0273014	0.75	4	0.0	13	0.75	n/a	-20
-132.2740258	0.75	4	0.0	13	0.75	n/a	-70
-131.5210079	0.75	4	0.0	13	0.75	n/a	20
-130.7674006	0.75	4	0.0	13	0.75	n/a	-20
-129.9991626	1	4	0.0	9	n/a	n/a	-90
-129.9991626	1	4	0.0	10	n/a	n/a	OLL Error
-128.9929536	n/a	4	0.0	7	n/a	n/a	16.5
-128.0482021	n/a	4	1.0	3	n/a	n/a	n/a
-128.0482021	9	4	1.0	4	n/a	n/a	9
-119.0325901	2.5	4	1.0	5	n/a	n/a	3
-118.7313239	n/a	1_4_0	1.0	8	9.316878200042991	1.0	140
-118.0495899	n/a	1_4_1	1.0	8	9.998612200375646	1.0	120
-116.5822872	n/a	1_4_2	1.0	8	11.465914900414646	1.0	100
-116.4888074	1	4	1.0	9	n/a	n/a	-200
-116.4888074	1	4	1.0	10	n/a	n/a	Miss
-115.4845408	n/a	4	1.0	7	n/a	n/a	16.5
-111.5505293	n/a	5	2.0	3	n/a	n/a	n/a
-111.5505293	9	5	2.0	4	n/a	n/a	9
-102.5349119	2.5	5	2.0	5	n/a	n/a	3
-102.0342143	n/a	6_5_0	2.0	8	9.516314999666065	1.0	-20
-101.8009317	n/a	6_5_1	2.0	8	9.749597599729897	1.0	120
-101.5345591	n/a	6_5_2	2.0	8	10.015970199834557	1.0	100
-101.2845392	n/a	6_5_3	2.0	8	10.265990099869668	1.0	80
-100.8349774	n/a	6_5_4	2.0	8	10.71555189974606	1.0	60
-100.0187647	 n/a	5	2.0	6	n/a	n/a	n/a
-100.0170709	0.75	5	2.0	13	0.75	n/a	-20
-99.2637356999	0.75	5	2.0	13	0.75	n/a	140
-98.5096119	0.75	5	2.0	13	0.75	n/a	-20
-97.7567336001	0.75	5	2.0	13	0.75	n/a	-20
-97.0026587001	0.75	5	2.0	13	0.75	n/a	-20
-96.2339901002	1	5	2.0	9	n/a	n/a	60
-96.2339901002	1	5	2.0	10	n/a	n/a	ONLL Correct
-95.2281813002	n/a	5	2.0	7	n/a	n/a	17.25
-94.3028079001	n/a	3	3.0	3	n/a	n/a	n/a
-94.3028079001	9	3	3.0	4	n/a	n/a	9
-85.2870765999	2.5	3	3.0	5	n/a	n/a	3
-84.7531189001	n/a	3_3_0	3.0	8	9.549689000006763	1.0	-20
-84.2525900002	n/a	3_3_1	3.0	8	10.050217899959533	-1.0	0
-83.6860862002	n/a	3_3_2	3.0	8	10.616721699945627	1.0	-20
-82.7705489998	 n/a	3	3.0	6	n/a	n/a	n/a
-82.7680707998	0.75	3	3.0	13	0.75	n/a	-20
-82.0136627001	0.75	3	3.0	13	0.75	n/a	20
-81.2610128	0.75	3	3.0	13	0.75	n/a	-20
-80.4915376999	1	3	3.0	9	n/a	n/a	-20
-80.4915376999	1	3	3.0	10	n/a	n/a	OLL Error
-79.4857832999	n/a	3	3.0	7	n/a	n/a	15.75
-78.5404667002	n/a	5	4.0	3	n/a	n/a	n/a
-78.5404667002	9	5	4.0	4	n/a	n/a	9
-69.5389649002	2.5	5	4.0	5	n/a	n/a	3
-67.9055666998	n/a	5_5_0	4.0	8	10.634900000412015	1.0	-20
-67.6063370002	n/a	5_5_1	4.0	8	10.93412970006466	1.0	-40
-66.9975899998	1	5	4.0	9	n/a	n/a	-200
-66.9975899998	1	5	4.0	10	n/a	n/a	Miss
-65.9905908001	n/a	5	4.0	7	n/a	n/a	17.25
-61.2900262	n/a	3	5.0	3	n/a	n/a	n/a
-61.2900262	9	3	5.0	4	n/a	n/a	9
-52.2743489998	2.5	3	5.0	5	n/a	n/a	3
-51.8402491999	n/a	4_3_0	5.0	8	9.449777000118047	-1.0	20
-51.3413133002	n/a	4_3_1	5.0	8	9.948712899815293	1.0	0
-51.1406502998	n/a	4_3_2	5.0	8	10.14937590016052	1.0	-20
-49.7586019002	 n/a	3	5.0	6	n/a	n/a	n/a
-49.7572063999	0.75	3	5.0	13	0.75	n/a	20
-49.0044593001	0.75	3	5.0	13	0.75	n/a	-20
-48.2525832998	0.75	3	5.0	13	0.75	n/a	-20
-47.4860120998	1	3	5.0	9	n/a	n/a	-20
-47.4860120998	1	3	5.0	10	n/a	n/a	ONLL Correct
-46.4804619998	n/a	3	5.0	7	n/a	n/a	15.75
8.0	0	n/a	n/a	2	n/a	n/a	n/a
16.0163054001	n/a	3	0.0	3	n/a	n/a	n/a
16.0163054001	9	3	0.0	4	n/a	n/a	9
25.0319630001	2.5	3	0.0	5	n/a	n/a	2.5
25.7995671001	n/a	4_3_0	0.0	8	9.783261700067671	1.0	-20
26.4158033002	n/a	4_3_1	0.0	8	10.399497900158169	-1.0	-90
26.6657556002	n/a	4_3_2	0.0	8	10.649450200144203	-1.0	-70
27.5486343	 n/a	3	0.0	6	n/a	n/a	n/a
27.5508679999	0.75	3	0.0	13	0.75	n/a	-20
28.3042748002	0.75	3	0.0	13	0.75	n/a	-70
29.0573077998	0.75	3	0.0	13	0.75	n/a	20
29.8212166	1	3	0.0	9	n/a	n/a	-70
29.8212166	1	3	0.0	10	n/a	n/a	OLL Error
30.8267564001	n/a	3	0.0	7	n/a	n/a	15.75
31.7643260001	n/a	4	1.0	3	n/a	n/a	n/a
31.7643260001	9	4	1.0	4	n/a	n/a	9
40.7806604002	2.5	4	1.0	5	n/a	n/a	2.5
41.3302636002	n/a	2_4_0	1.0	8	9.56593760009855	1.0	-20
41.7308733999	n/a	2_4_1	1.0	8	9.966547399759293	1.0	-40
42.1976732998	n/a	2_4_2	1.0	8	10.433347299695017	-1.0	-20
42.5303924	n/a	2_4_3	1.0	8	10.76606639986858	-1.0	-90
43.2964344001	 n/a	4	1.0	6	n/a	n/a	n/a
43.2986459001	0.75	4	1.0	13	0.75	n/a	-20
44.0521654999	0.75	4	1.0	13	0.75	n/a	-20
44.8054346	0.75	4	1.0	13	0.75	n/a	20
45.5593770999	0.75	4	1.0	13	0.75	n/a	-70
46.3280936	1	4	1.0	9	n/a	n/a	-90
46.3280936	1	4	1.0	10	n/a	n/a	OLL Error
47.3344586999	n/a	4	1.0	7	n/a	n/a	16.5
48.2764141001	n/a	4	2.0	3	n/a	n/a	n/a
48.2764141001	9	4	2.0	4	n/a	n/a	9
57.2781381002	2.5	4	2.0	5	n/a	n/a	2.5
58.4285931	n/a	4_4_0	2.0	8	10.152178999967873	-1.0	20
59.0948812002	n/a	4_4_1	2.0	8	10.818467100150883	1.0	0
59.8219113001	1	4	2.0	9	n/a	n/a	-200
59.8219113001	1	4	2.0	10	n/a	n/a	Miss
60.8276916998	n/a	4	2.0	7	n/a	n/a	16.5
64.774613	n/a	5	3.0	3	n/a	n/a	n/a
64.774613	9	5	3.0	4	n/a	n/a	9
73.7763842	2.5	5	3.0	5	n/a	n/a	2.5
74.0769249001	n/a	5_5_0	3.0	8	9.302311900071802	1.0	-20
74.4934227001	n/a	5_5_1	3.0	8	9.71880970010534	1.0	-40
74.8435052	n/a	5_5_2	3.0	8	10.06889220001176	-1.0	-20
75.1593859	n/a	5_5_3	3.0	8	10.384772900026293	-1.0	0
75.4770677001	n/a	5_5_4	3.0	8	10.702454700134696	-1.0	-70
76.2925336002	 n/a	5	3.0	6	n/a	n/a	n/a
76.295657	0.75	5	3.0	13	0.75	n/a	-20
77.0497518	0.75	5	3.0	13	0.75	n/a	-20
77.8038487001	0.75	5	3.0	13	0.75	n/a	20
78.5562525	0.75	5	3.0	13	0.75	n/a	20
79.3094755998	0.75	5	3.0	13	0.75	n/a	-70
80.0764294001	1	5	3.0	9	n/a	n/a	-70
80.0764294001	1	5	3.0	10	n/a	n/a	OLL Error
81.0820668	n/a	5	3.0	7	n/a	n/a	17.25
82.0249013999	n/a	5	4.0	3	n/a	n/a	n/a
82.0249013999	9	5	4.0	4	n/a	n/a	9
91.0406179	2.5	5	4.0	5	n/a	n/a	2.5
91.9410331999	n/a	2_5_0	4.0	8	9.916131800040604	-1.0	-70
92.3244663998	n/a	2_5_1	4.0	8	10.29956499999389	-1.0	-140
92.5402245	n/a	2_5_2	4.0	8	10.515323100145906	-1.0	-120
92.8742673001	n/a	2_5_3	4.0	8	10.84936590027064	1.0	-140
93.1402483	n/a	2_5_4	4.0	8	11.115346900187433	1.0	-160
93.5571896001	 n/a	5	4.0	6	n/a	n/a	n/a
93.5590788	0.75	5	4.0	13	0.75	n/a	-70
94.3113143998	0.75	5	4.0	13	0.75	n/a	-70
95.0636129999	0.75	5	4.0	13	0.75	n/a	20
95.8167701	0.75	5	4.0	13	0.75	n/a	-20
96.5701794	0.75	5	4.0	13	0.75	n/a	-20
97.3377636001	1	5	4.0	9	n/a	n/a	-160
97.3377636001	1	5	4.0	10	n/a	n/a	OLL Error
98.3442636998	n/a	5	4.0	7	n/a	n/a	17.25
99.2729181	n/a	5	5.0	3	n/a	n/a	n/a
99.2729181	9	5	5.0	4	n/a	n/a	9
108.2886403	2.5	5	5.0	5	n/a	n/a	2.5
108.7894747	n/a	6_5_0	5.0	8	9.516556600108744	1.0	-20
109.0393647	n/a	6_5_1	5.0	8	9.766446600202473	1.0	120
109.3218496	n/a	6_5_2	5.0	8	10.048931499943137	1.0	100
109.6222243	n/a	6_5_3	5.0	8	10.349306200165303	-1.0	30
109.8391417	n/a	6_5_4	5.0	8	10.566223599947987	-1.0	50
110.8046497	 n/a	5	5.0	6	n/a	n/a	n/a
110.8069143	0.75	5	5.0	13	0.75	n/a	-20
111.5604663	0.75	5	5.0	13	0.75	n/a	140
112.3135916	0.75	5	5.0	13	0.75	n/a	-20
113.0658295	0.75	5	5.0	13	0.75	n/a	-70
113.8193426	0.75	5	5.0	13	0.75	n/a	20
114.5846655	1	5	5.0	9	n/a	n/a	50
114.5846655	1	5	5.0	10	n/a	n/a	OLL Error
115.5923955	n/a	5	5.0	7	n/a	n/a	17.25
116.5205213	n/a	3	6.0	3	n/a	n/a	n/a
116.5205213	9	3	6.0	4	n/a	n/a	9
125.5363143	2.5	3	6.0	5	n/a	n/a	2.5
126.0537786	n/a	5_3_0	6.0	8	9.533257300034164	1.0	-20
126.3695818	n/a	5_3_1	6.0	8	9.84906050004065	1.0	-40
126.7530804	n/a	5_3_2	6.0	8	10.232559100259095	1.0	100
128.0527018	 n/a	3	6.0	6	n/a	n/a	n/a
128.0558813	0.75	3	6.0	13	0.75	n/a	-20
128.8087338	0.75	3	6.0	13	0.75	n/a	-20
129.5618721	0.75	3	6.0	13	0.75	n/a	140
130.3298934	1	3	6.0	9	n/a	n/a	100
130.3298934	1	3	6.0	10	n/a	n/a	ONLL Correct
131.3361397	n/a	3	6.0	7	n/a	n/a	15.75
132.2682982	n/a	3	7.0	3	n/a	n/a	n/a
132.2682982	9	3	7.0	4	n/a	n/a	9
141.2843413	2.5	3	7.0	5	n/a	n/a	2.5
142.9514097	n/a	3_3_0	7.0	8	10.683111499994991	1.0	-20
143.2181108	n/a	3_3_1	7.0	8	10.949812599923463	1.0	-40
143.4345765	n/a	3_3_2	7.0	8	11.16627830034122	-1.0	-110
143.8005628	 n/a	3	7.0	6	n/a	n/a	n/a
143.803048	0.75	3	7.0	13	0.75	n/a	-20
144.5571839	0.75	3	7.0	13	0.75	n/a	-20
145.3109632	0.75	3	7.0	13	0.75	n/a	-70
146.0797089	1	3	7.0	9	n/a	n/a	-110
146.0797089	1	3	7.0	10	n/a	n/a	OLL Error
147.0867678	n/a	3	7.0	7	n/a	n/a	15.75
148.0166848	n/a	4	8.0	3	n/a	n/a	n/a
148.0166848	9	4	8.0	4	n/a	n/a	9
157.0321411	2.5	4	8.0	5	n/a	n/a	2.5
157.5821557	n/a	5_4_0	8.0	8	9.56547089992091	-1.0	-70
157.782837	n/a	5_4_1	8.0	8	9.76615220028907	-1.0	-50
158.0155122	n/a	5_4_2	8.0	8	9.99882740015164	1.0	-70
158.215762	n/a	5_4_3	8.0	8	10.19907720014453	1.0	-90
159.5323139	 n/a	4	8.0	6	n/a	n/a	n/a
159.5351715	0.75	4	8.0	13	0.75	n/a	-70
160.2890833	0.75	4	8.0	13	0.75	n/a	20
161.0421522	0.75	4	8.0	13	0.75	n/a	-20
161.7963092	0.75	4	8.0	13	0.75	n/a	-20
162.5633641	1	4	8.0	9	n/a	n/a	-90
162.5633641	1	4	8.0	10	n/a	n/a	ONLL Error
163.5686625	n/a	4	8.0	7	n/a	n/a	16.5
164.5145341	n/a	3	9.0	3	n/a	n/a	n/a
164.5145341	9	3	9.0	4	n/a	n/a	9
173.5302164	2.5	3	9.0	5	n/a	n/a	2.5
174.1804495	n/a	6_3_0	9.0	8	9.665915400255473	1.0	-20
174.3801622	n/a	6_3_1	9.0	8	9.865628100000322	1.0	120
174.597192	n/a	6_3_2	9.0	8	10.082657900173217	-1.0	50
176.0467506	 n/a	3	9.0	6	n/a	n/a	n/a
176.0490518	0.75	3	9.0	13	0.75	n/a	-20
176.8024705	0.75	3	9.0	13	0.75	n/a	140
177.5551739	0.75	3	9.0	13	0.75	n/a	-70
178.3201488	1	3	9.0	9	n/a	n/a	50
178.3201488	1	3	9.0	10	n/a	n/a	ONLL Error
179.3255653	n/a	3	9.0	7	n/a	n/a	15.75
180.2762561	n/a	5	10.0	3	n/a	n/a	n/a
180.2762561	9	5	10.0	4	n/a	n/a	9
189.2783227	2.5	5	10.0	5	n/a	n/a	2.5
189.5444464	n/a	3_5_0	10.0	8	9.2681903000921	1.0	-20
189.8446727	n/a	3_5_1	10.0	8	9.568416600115595	1.0	-40
190.1114501	n/a	3_5_2	10.0	8	9.835194000042977	-1.0	-110
190.545629	n/a	3_5_3	10.0	8	10.269372900016606	-1.0	-90
190.9614401	n/a	3_5_4	10.0	8	10.685184000059964	1.0	-110
191.7945879	 n/a	5	10.0	6	n/a	n/a	n/a
191.7968184	0.75	5	10.0	13	0.75	n/a	-20
192.5486499	0.75	5	10.0	13	0.75	n/a	-20
193.302789	0.75	5	10.0	13	0.75	n/a	-70
194.0552925	0.75	5	10.0	13	0.75	n/a	20
194.8095018	0.75	5	10.0	13	0.75	n/a	-20
195.5788523	1	5	10.0	9	n/a	n/a	-110
195.5788523	1	5	10.0	10	n/a	n/a	ONLL Error
196.5841071	n/a	5	10.0	7	n/a	n/a	17.25
197.5269701	n/a	4	11.0	3	n/a	n/a	n/a
197.5269701	9	4	11.0	4	n/a	n/a	9
206.5425509	2.5	4	11.0	5	n/a	n/a	2.5
206.8926477	n/a	1_4_0	11.0	8	9.365677599795164	1.0	140
207.2763076	n/a	1_4_1	11.0	8	9.749337499961255	1.0	120
207.6597497	n/a	1_4_2	11.0	8	10.132779600098731	-1.0	50
208.0261435	n/a	1_4_3	11.0	8	10.499173399992287	-1.0	70
209.0588746	 n/a	4	11.0	6	n/a	n/a	n/a
209.0608968	0.75	4	11.0	13	0.75	n/a	140
209.8151331	0.75	4	11.0	13	0.75	n/a	-20
210.5689238	0.75	4	11.0	13	0.75	n/a	-70
211.3217883	0.75	4	11.0	13	0.75	n/a	20
212.08689	1	4	11.0	9	n/a	n/a	70
212.08689	1	4	11.0	10	n/a	n/a	OLL Error
213.0916915	n/a	4	11.0	7	n/a	n/a	16.5
214.0246795	n/a	4	12.0	3	n/a	n/a	n/a
214.0246795	9	4	12.0	4	n/a	n/a	9
223.0401414	2.5	4	12.0	5	n/a	n/a	2.5
223.9915855	n/a	3_4_0	12.0	8	9.966905999928713	1.0	-20
224.3078415	n/a	3_4_1	12.0	8	10.28316199965775	-1.0	0
225.4902222	n/a	3_4_2	12.0	8	11.465542699676009	-1.0	-70
225.5817948	1	4	12.0	9	n/a	n/a	-200
225.5817948	1	4	12.0	10	n/a	n/a	Miss
226.5886377	n/a	4	12.0	7	n/a	n/a	16.5
230.5223698	n/a	5	13.0	3	n/a	n/a	n/a
230.5223698	9	5	13.0	4	n/a	n/a	9
239.5384921	2.5	5	13.0	5	n/a	n/a	2.5
240.1389874	n/a	4_5_0	13.0	8	9.616617599967867	1.0	-20
240.371761	n/a	4_5_1	13.0	8	9.84939119964838	1.0	-40
240.6383063	n/a	4_5_2	13.0	8	10.115936500020323	-1.0	-20
240.838708	n/a	4_5_3	13.0	8	10.316338199656457	-1.0	-90
241.0389862	n/a	4_5_4	13.0	8	10.516616399865596	-1.0	-70
242.0547423	 n/a	5	13.0	6	n/a	n/a	n/a
242.0572344	0.75	5	13.0	13	0.75	n/a	-20
242.8105862	0.75	5	13.0	13	0.75	n/a	-20
243.5640585	0.75	5	13.0	13	0.75	n/a	20
244.3180833	0.75	5	13.0	13	0.75	n/a	-70
245.0711166	0.75	5	13.0	13	0.75	n/a	20
245.8384451	1	5	13.0	9	n/a	n/a	-70
245.8384451	1	5	13.0	10	n/a	n/a	ONLL Error
246.8450752	n/a	5	13.0	7	n/a	n/a	17.25
247.7703767	n/a	3	14.0	3	n/a	n/a	n/a
247.7703767	9	3	14.0	4	n/a	n/a	9
256.7865548	2.5	3	14.0	5	n/a	n/a	2.5
257.3197983	n/a	2_3_0	14.0	8	9.549421600066124	1.0	-20
257.7034162	n/a	2_3_1	14.0	8	9.933039499912413	1.0	-40
257.9699858	n/a	2_3_2	14.0	8	10.199609099887313	-1.0	-20
259.3025911	 n/a	3	14.0	6	n/a	n/a	n/a
259.3048576	0.75	3	14.0	13	0.75	n/a	-20
260.0571396	0.75	3	14.0	13	0.75	n/a	-20
260.810365	0.75	3	14.0	13	0.75	n/a	20
261.5771154	1	3	14.0	9	n/a	n/a	-20
261.5771154	1	3	14.0	10	n/a	n/a	Aversive Pruning
262.5829813	n/a	3	14.0	7	n/a	n/a	15.75
263.5182541	n/a	3	15.0	3	n/a	n/a	n/a
263.5182541	9	3	15.0	4	n/a	n/a	9
272.5341961	2.5	3	15.0	5	n/a	n/a	2.5
273.217703	n/a	1_3_0	15.0	8	9.699448900297282	1.0	140
273.551302	n/a	1_3_1	15.0	8	10.033047900069503	-1.0	70
273.7676921	n/a	1_3_2	15.0	8	10.249437999911605	-1.0	0
275.0505858	 n/a	3	15.0	6	n/a	n/a	n/a
275.0529974	0.75	3	15.0	13	0.75	n/a	140
275.8052341	0.75	3	15.0	13	0.75	n/a	-70
276.5574419	0.75	3	15.0	13	0.75	n/a	-70
277.3246072	1	3	15.0	9	n/a	n/a	0
277.3246072	1	3	15.0	10	n/a	n/a	ONLL Error
278.3316571	n/a	3	15.0	7	n/a	n/a	15.75
279.2665582	n/a	4	16.0	3	n/a	n/a	n/a
279.2665582	9	4	16.0	4	n/a	n/a	9
288.2824895	2.5	4	16.0	5	n/a	n/a	2.5
288.7319286	n/a	6_4_0	16.0	8	9.465370399877427	1.0	-20
289.049568	n/a	6_4_1	16.0	8	9.783009799662976	1.0	120
289.1321256	n/a	6_4_2	16.0	8	9.865567400120199	-1.0	50
289.8490646	n/a	6_4_3	16.0	8	10.58250640006736	-1.0	-20
290.7986959	 n/a	4	16.0	6	n/a	n/a	n/a
290.8011206	0.75	4	16.0	13	0.75	n/a	-20
291.5538662	0.75	4	16.0	13	0.75	n/a	140
292.3072009	0.75	4	16.0	13	0.75	n/a	-70
293.0612529	0.75	4	16.0	13	0.75	n/a	-70
293.8273132	1	4	16.0	9	n/a	n/a	-20
293.8273132	1	4	16.0	10	n/a	n/a	ONLL Error
294.8339526	n/a	4	16.0	7	n/a	n/a	16.5
295.7787044	n/a	5	17.0	3	n/a	n/a	n/a
295.7787044	9	5	17.0	4	n/a	n/a	9
304.7798942	2.5	5	17.0	5	n/a	n/a	2.5
305.231665	n/a	1_5_0	17.0	8	9.4529605996795	1.0	140
305.5969937	n/a	1_5_1	17.0	8	9.81828929996118	1.0	120
305.8803922	n/a	1_5_2	17.0	8	10.101687799673527	1.0	100
306.1970754	n/a	1_5_3	17.0	8	10.418370999861507	-1.0	120
306.6297673	n/a	1_5_4	17.0	8	10.851062899921091	1.0	100
307.2966329	 n/a	5	17.0	6	n/a	n/a	n/a
307.2989577	0.75	5	17.0	13	0.75	n/a	140
308.0532122	0.75	5	17.0	13	0.75	n/a	-20
308.8072984	0.75	5	17.0	13	0.75	n/a	-20
309.5609256	0.75	5	17.0	13	0.75	n/a	20
310.313053	0.75	5	17.0	13	0.75	n/a	-20
311.0806399	1	5	17.0	9	n/a	n/a	100
311.0806399	1	5	17.0	10	n/a	n/a	OLL Error
312.0852555	n/a	5	17.0	7	n/a	n/a	17.25
313.0261572	n/a	3	18.0	3	n/a	n/a	n/a
313.0261572	9	3	18.0	4	n/a	n/a	9
322.0276584	2.5	3	18.0	5	n/a	n/a	2.5
322.7944176	n/a	2_3_0	18.0	8	9.768260400276633	-1.0	-70
323.2284645	n/a	2_3_1	18.0	8	10.202307300176473	-1.0	-140
323.5279795	n/a	2_3_2	18.0	8	10.5018223002553	-1.0	-120
324.5446712	 n/a	3	18.0	6	n/a	n/a	n/a
324.5469628	0.75	3	18.0	13	0.75	n/a	-70
325.2995241	0.75	3	18.0	13	0.75	n/a	-70
326.0536291	0.75	3	18.0	13	0.75	n/a	20
326.8214738	1	3	18.0	9	n/a	n/a	-120
326.8214738	1	3	18.0	10	n/a	n/a	OLL Error
327.8295138	n/a	3	18.0	7	n/a	n/a	15.75
328.7774195	n/a	5	19.0	3	n/a	n/a	n/a
328.7774195	9	5	19.0	4	n/a	n/a	9
337.7924507	2.5	5	19.0	5	n/a	n/a	2.5
338.3928898	n/a	4_5_0	19.0	8	9.615470299962908	1.0	-20
338.6765538	n/a	4_5_1	19.0	8	9.899134300183503	1.0	-40
338.9765695	n/a	4_5_2	19.0	8	10.199149999767544	-1.0	-20
339.2262424	n/a	4_5_3	19.0	8	10.448822900187224	-1.0	-90
339.509585	n/a	4_5_4	19.0	8	10.732165500056	1.0	-110
340.308956	 n/a	5	19.0	6	n/a	n/a	n/a
340.311184	0.75	5	19.0	13	0.75	n/a	-20
341.0653644	0.75	5	19.0	13	0.75	n/a	-20
341.819154	0.75	5	19.0	13	0.75	n/a	20
342.5718337	0.75	5	19.0	13	0.75	n/a	-70
343.3245695	0.75	5	19.0	13	0.75	n/a	-20
344.0923741	1	5	19.0	9	n/a	n/a	-110
344.0923741	1	5	19.0	10	n/a	n/a	ONLL Error
345.0990522	n/a	5	19.0	7	n/a	n/a	17.25
346.0248367	n/a	5	20.0	3	n/a	n/a	n/a
346.0248367	9	5	20.0	4	n/a	n/a	9
355.0402129	2.5	5	20.0	5	n/a	n/a	2.5
355.4245927	n/a	2_5_0	20.0	8	9.399755999911577	1.0	-20
356.1238998	n/a	2_5_1	20.0	8	10.09906310029328	1.0	-40
356.4744574	n/a	2_5_2	20.0	8	10.449620699975641	1.0	-60
357.1910117	n/a	2_5_3	20.0	8	11.166174999903886	-1.0	-130
357.5825599	1	5	20.0	9	n/a	n/a	-200
357.5825599	1	5	20.0	10	n/a	n/a	Miss
358.589132	n/a	5	20.0	7	n/a	n/a	17.25
363.2718771	n/a	4	21.0	3	n/a	n/a	n/a
363.2718771	9	4	21.0	4	n/a	n/a	9
372.2878949	2.5	4	21.0	5	n/a	n/a	2.5
372.6553649	n/a	5_4_0	21.0	8	9.383487799670547	1.0	-20
372.8392165	n/a	5_4_1	21.0	8	9.567339399829509	1.0	-40
373.0384753	n/a	5_4_2	21.0	8	9.766598199959843	1.0	100
373.2551086	n/a	5_4_3	21.0	8	9.983231499791144	1.0	80
374.8050576	 n/a	4	21.0	6	n/a	n/a	n/a
374.8073493	0.75	4	21.0	13	0.75	n/a	-20
375.5597419	0.75	4	21.0	13	0.75	n/a	-20
376.3125278	0.75	4	21.0	13	0.75	n/a	140
377.0658183	0.75	4	21.0	13	0.75	n/a	-20
377.8319327	1	4	21.0	9	n/a	n/a	80
377.8319327	1	4	21.0	10	n/a	n/a	ONLL Correct
378.8376839	n/a	4	21.0	7	n/a	n/a	16.5
379.770754	n/a	4	22.0	3	n/a	n/a	n/a
379.770754	9	4	22.0	4	n/a	n/a	9
388.7860065	2.5	4	22.0	5	n/a	n/a	2.5
389.1862767	n/a	4_4_0	22.0	8	9.415522699709983	1.0	-20
389.386961	n/a	4_4_1	22.0	8	9.616206999868156	1.0	-40
389.5865965	n/a	4_4_2	22.0	8	9.815842499956489	1.0	-60
389.8702475	n/a	4_4_3	22.0	8	10.099493499845265	1.0	80
391.3022903	 n/a	4	22.0	6	n/a	n/a	n/a
391.3045086	0.75	4	22.0	13	0.75	n/a	-20
392.0570619	0.75	4	22.0	13	0.75	n/a	-20
392.8096275	0.75	4	22.0	13	0.75	n/a	-20
393.5614777	0.75	4	22.0	13	0.75	n/a	140
394.3281464	1	4	22.0	9	n/a	n/a	80
394.3281464	1	4	22.0	10	n/a	n/a	ONLL Correct
395.3335022	n/a	4	22.0	7	n/a	n/a	16.5
396.268587	n/a	3	23.0	3	n/a	n/a	n/a
396.268587	9	3	23.0	4	n/a	n/a	9
405.2843309	2.5	3	23.0	5	n/a	n/a	2.5
405.8001931	n/a	6_3_0	23.0	8	9.531606100033967	1.0	-20
406.1012156	n/a	6_3_1	23.0	8	9.832628599833695	1.0	120
406.4015433	n/a	6_3_2	23.0	8	10.132956299930813	1.0	100
407.8005278	 n/a	3	23.0	6	n/a	n/a	n/a
407.8026437	0.75	3	23.0	13	0.75	n/a	-20
408.5567203	0.75	3	23.0	13	0.75	n/a	140
409.3092911	0.75	3	23.0	13	0.75	n/a	-20
410.0754949	1	3	23.0	9	n/a	n/a	100
410.0754949	1	3	23.0	10	n/a	n/a	ONLL Correct
411.0829155	n/a	3	23.0	7	n/a	n/a	15.75
412.0161475	n/a	4	24.0	3	n/a	n/a	n/a
412.0161475	9	4	24.0	4	n/a	n/a	9
421.0323174	2.5	4	24.0	5	n/a	n/a	2.5
421.4491034	n/a	1_4_0	24.0	8	9.432955900207162	1.0	140
421.7490094	n/a	1_4_1	24.0	8	9.732861900236458	1.0	120
422.0319329	n/a	1_4_2	24.0	8	10.015785400290044	1.0	100
422.3989726	n/a	1_4_3	24.0	8	10.382825100328773	-1.0	120
423.5485368	 n/a	4	24.0	6	n/a	n/a	n/a
423.5507464	0.75	4	24.0	13	0.75	n/a	140
424.3033738	0.75	4	24.0	13	0.75	n/a	-20
425.0563388	0.75	4	24.0	13	0.75	n/a	-20
425.8083887	0.75	4	24.0	13	0.75	n/a	20
426.5735871	1	4	24.0	9	n/a	n/a	120
426.5735871	1	4	24.0	10	n/a	n/a	Aversive Pruning
427.5798787	n/a	4	24.0	7	n/a	n/a	16.5
428.5147327	n/a	3	25.0	3	n/a	n/a	n/a
428.5147327	9	3	25.0	4	n/a	n/a	9
437.529727	2.5	3	25.0	5	n/a	n/a	2.5
437.9300955	n/a	4_3_0	25.0	8	9.415362800005825	-1.0	20
438.2300252	n/a	4_3_1	25.0	8	9.715292500331998	1.0	0
438.4302158	n/a	4_3_2	25.0	8	9.915483100339769	1.0	-20
440.0463504	 n/a	3	25.0	6	n/a	n/a	n/a
440.0488174	0.75	3	25.0	13	0.75	n/a	20
440.8028821	0.75	3	25.0	13	0.75	n/a	-20
441.556143	0.75	3	25.0	13	0.75	n/a	-20
442.3227904	1	3	25.0	9	n/a	n/a	-20
442.3227904	1	3	25.0	10	n/a	n/a	Aversive Pruning
443.3291846	n/a	3	25.0	7	n/a	n/a	15.75
444.2763532	n/a	5	26.0	3	n/a	n/a	n/a
444.2763532	9	5	26.0	4	n/a	n/a	9
453.2779959	2.5	5	26.0	5	n/a	n/a	2.5
453.6954801	n/a	6_5_0	26.0	8	9.419126899912953	1.0	-20
453.9611531	n/a	6_5_1	26.0	8	9.684799900278447	1.0	120
454.2608554	n/a	6_5_2	26.0	8	9.98450220003724	1.0	100
455.144774	n/a	6_5_3	26.0	8	10.868420800194144	1.0	80
455.4608528	n/a	6_5_4	26.0	8	11.184499599970877	-1.0	100
455.7943928	 n/a	5	26.0	6	n/a	n/a	n/a
455.7971787	0.75	5	26.0	13	0.75	n/a	-20
456.5505208	0.75	5	26.0	13	0.75	n/a	140
457.3046636	0.75	5	26.0	13	0.75	n/a	-20
458.0573343	0.75	5	26.0	13	0.75	n/a	-20
458.8113767	0.75	5	26.0	13	0.75	n/a	20
459.5771152	1	5	26.0	9	n/a	n/a	100
459.5771152	1	5	26.0	10	n/a	n/a	Aversive Pruning
460.5835511	n/a	5	26.0	7	n/a	n/a	17.25
461.5268284	n/a	3	27.0	3	n/a	n/a	n/a
461.5268284	9	3	27.0	4	n/a	n/a	9
470.5424341	2.5	3	27.0	5	n/a	n/a	2.5
470.9424457	n/a	5_3_0	27.0	8	9.415617300197482	1.0	-20
471.1927154	n/a	5_3_1	27.0	8	9.665887000039222	1.0	-40
471.4092608	n/a	5_3_2	27.0	8	9.882432400248943	1.0	100
473.0589463	 n/a	3	27.0	6	n/a	n/a	n/a
473.0616299	0.75	3	27.0	13	0.75	n/a	-20
473.8142419	0.75	3	27.0	13	0.75	n/a	-20
474.56759	0.75	3	27.0	13	0.75	n/a	140
475.3360747	1	3	27.0	9	n/a	n/a	100
475.3360747	1	3	27.0	10	n/a	n/a	ONLL Correct
476.342998	n/a	3	27.0	7	n/a	n/a	15.75
477.2748031	n/a	3	28.0	3	n/a	n/a	n/a
477.2748031	9	3	28.0	4	n/a	n/a	9
486.2904093	2.5	3	28.0	5	n/a	n/a	2.5
486.7572675	n/a	3_3_0	28.0	8	9.482464399654418	1.0	-20
487.1406168	n/a	3_3_1	28.0	8	9.865813700016588	-1.0	0
487.3741787	n/a	3_3_2	28.0	8	10.099375599995255	-1.0	-70
488.8069756	 n/a	3	28.0	6	n/a	n/a	n/a
488.8093123	0.75	3	28.0	13	0.75	n/a	-20
489.5624465	0.75	3	28.0	13	0.75	n/a	20
490.3148822	0.75	3	28.0	13	0.75	n/a	-70
491.0801425	1	3	28.0	9	n/a	n/a	-70
491.0801425	1	3	28.0	10	n/a	n/a	OLL Error
492.0879616	n/a	3	28.0	7	n/a	n/a	15.75
493.0226442	n/a	5	29.0	3	n/a	n/a	n/a
493.0226442	9	5	29.0	4	n/a	n/a	9
502.0387745	2.5	5	29.0	5	n/a	n/a	2.5
503.0221839	n/a	3_5_0	29.0	8	9.999539700336754	-1.0	-70
504.2716721	n/a	3_5_1	29.0	8	11.249027899932118	1.0	-90
504.5793888	1	5	29.0	9	n/a	n/a	-200
504.5793888	1	5	29.0	10	n/a	n/a	Miss
505.5858573	n/a	5	29.0	7	n/a	n/a	17.25
510.2696538	n/a	5	30.0	3	n/a	n/a	n/a
510.2696538	9	5	30.0	4	n/a	n/a	9
519.2863502	2.5	5	30.0	5	n/a	n/a	2.5
519.7030172	n/a	1_5_0	30.0	8	9.433363399934024	1.0	140
520.0196454	n/a	1_5_1	30.0	8	9.749991599936036	1.0	120
520.3365295	n/a	1_5_2	30.0	8	10.06687569990754	1.0	100
520.6525888	n/a	1_5_3	30.0	8	10.382935000117866	1.0	80
521.3698233	n/a	1_5_4	30.0	8	11.100169499870391	1.0	60
521.8027845	 n/a	5	30.0	6	n/a	n/a	n/a
521.8055153	0.75	5	30.0	13	0.75	n/a	140
522.5580292	0.75	5	30.0	13	0.75	n/a	-20
523.3118089	0.75	5	30.0	13	0.75	n/a	-20
524.0645276	0.75	5	30.0	13	0.75	n/a	-20
524.8183129	0.75	5	30.0	13	0.75	n/a	-20
525.5836535	1	5	30.0	9	n/a	n/a	60
525.5836535	1	5	30.0	10	n/a	n/a	OLL Error
526.5913039	n/a	5	30.0	7	n/a	n/a	17.25
527.5184177	n/a	3	31.0	3	n/a	n/a	n/a
527.5184177	9	3	31.0	4	n/a	n/a	9
536.5343685	2.5	3	31.0	5	n/a	n/a	2.5
537.0181873	n/a	1_3_0	31.0	8	9.499769599642603	1.0	140
537.285123	n/a	1_3_1	31.0	8	9.766705299727619	1.0	120
537.5178255	n/a	1_3_2	31.0	8	9.999407799914481	1.0	100
539.0505945	 n/a	3	31.0	6	n/a	n/a	n/a
539.0530497	0.75	3	31.0	13	0.75	n/a	140
539.8057314	0.75	3	31.0	13	0.75	n/a	-20
540.5583726	0.75	3	31.0	13	0.75	n/a	-20
541.324957	1	3	31.0	9	n/a	n/a	100
541.324957	1	3	31.0	10	n/a	n/a	ONLL Correct
542.3317813	n/a	3	31.0	7	n/a	n/a	15.75
543.2662815	n/a	4	32.0	3	n/a	n/a	n/a
543.2662815	9	4	32.0	4	n/a	n/a	9
552.2818018	2.5	4	32.0	5	n/a	n/a	2.5
552.948794	n/a	6_4_0	32.0	8	9.682512499857694	1.0	-20
553.4321546	n/a	6_4_1	32.0	8	10.165873100049792	1.0	120
554.0153967	n/a	6_4_2	32.0	8	10.749115200247617	1.0	100
554.699221	n/a	6_4_3	32.0	8	11.432939500082286	-1.0	30
554.7820228	 n/a	4	32.0	6	n/a	n/a	n/a
554.7844106	0.75	4	32.0	13	0.75	n/a	-20
555.5368555	0.75	4	32.0	13	0.75	n/a	140
556.2887811	0.75	4	32.0	13	0.75	n/a	-20
557.0417482	0.75	4	32.0	13	0.75	n/a	-70
557.8088452	1	4	32.0	9	n/a	n/a	30
557.8088452	1	4	32.0	10	n/a	n/a	ONLL Error
558.8156372	n/a	4	32.0	7	n/a	n/a	16.5
559.7646848	n/a	5	33.0	3	n/a	n/a	n/a
559.7646848	9	5	33.0	4	n/a	n/a	9
568.7794662	2.5	5	33.0	5	n/a	n/a	2.5
569.1802532	n/a	5_5_0	33.0	8	9.415568400174381	1.0	-20
569.6137869	n/a	5_5_1	33.0	8	9.849102099891752	1.0	-40
570.4470218	n/a	5_5_2	33.0	8	10.68233700003475	1.0	100
571.3088559	1	5	33.0	9	n/a	n/a	-200
571.3088559	1	5	33.0	10	n/a	n/a	Miss
572.3142754	n/a	5	33.0	7	n/a	n/a	17.25
577.0255028	n/a	4	34.0	3	n/a	n/a	n/a
577.0255028	9	4	34.0	4	n/a	n/a	9
586.0275575	2.5	4	34.0	5	n/a	n/a	2.5
586.4783945	n/a	2_4_0	34.0	8	9.452891699969767	1.0	-20
586.8284662	n/a	2_4_1	34.0	8	9.802963399793953	1.0	-40
587.1610109	n/a	2_4_2	34.0	8	10.135508100036533	-1.0	-20
587.494588	n/a	2_4_3	34.0	8	10.469085200224072	1.0	-40
588.5442426	 n/a	4	34.0	6	n/a	n/a	n/a
588.5468144	0.75	4	34.0	13	0.75	n/a	-20
589.3004198	0.75	4	34.0	13	0.75	n/a	-20
590.0535638	0.75	4	34.0	13	0.75	n/a	20
590.8054763	0.75	4	34.0	13	0.75	n/a	-20
591.5728829	1	4	34.0	9	n/a	n/a	-40
591.5728829	1	4	34.0	10	n/a	n/a	OLL Error
592.5787627	n/a	4	34.0	7	n/a	n/a	16.5
593.5267114	n/a	4	35.0	3	n/a	n/a	n/a
593.5267114	9	4	35.0	4	n/a	n/a	9
602.5418936	2.5	4	35.0	5	n/a	n/a	2.5
603.4587785	n/a	3_4_0	35.0	8	9.932067099958658	1.0	-20
603.8263054	n/a	3_4_1	35.0	8	10.299593999981882	-1.0	0
604.2255251	n/a	3_4_2	35.0	8	10.69881369965151	1.0	-20
604.5425242	n/a	3_4_3	35.0	8	11.01581279980019	1.0	-40
605.0586544	 n/a	4	35.0	6	n/a	n/a	n/a
605.0608583	0.75	4	35.0	13	0.75	n/a	-20
605.8137987	0.75	4	35.0	13	0.75	n/a	20
606.5675973	0.75	4	35.0	13	0.75	n/a	-20
607.3202702	0.75	4	35.0	13	0.75	n/a	-20
608.0881895	1	4	35.0	9	n/a	n/a	-40
608.0881895	1	4	35.0	10	n/a	n/a	OLL Error
609.0932673	n/a	4	35.0	7	n/a	n/a	16.5
610.024651	n/a	4	36.0	3	n/a	n/a	n/a
610.024651	9	4	36.0	4	n/a	n/a	9
619.0399774	2.5	4	36.0	5	n/a	n/a	2.5
620.04009	n/a	3_4_0	36.0	8	10.015438999980688	1.0	-20
620.3075069	n/a	3_4_1	36.0	8	10.282855900004506	-1.0	0
620.6573669	n/a	3_4_2	36.0	8	10.632715900428591	1.0	-20
620.8406885	n/a	3_4_3	36.0	8	10.816037500277162	1.0	-40
621.5565216	 n/a	4	36.0	6	n/a	n/a	n/a
621.5582114	0.75	4	36.0	13	0.75	n/a	-20
622.3116111	0.75	4	36.0	13	0.75	n/a	20
623.0644591	0.75	4	36.0	13	0.75	n/a	-20
623.8173692	0.75	4	36.0	13	0.75	n/a	-20
624.5848938	1	4	36.0	9	n/a	n/a	-40
624.5848938	1	4	36.0	10	n/a	n/a	OLL Error
625.5908102	n/a	4	36.0	7	n/a	n/a	16.5
626.5228167	n/a	3	37.0	3	n/a	n/a	n/a
626.5228167	9	3	37.0	4	n/a	n/a	9
635.538316	2.5	3	37.0	5	n/a	n/a	2.5
636.2385173	n/a	2_3_0	37.0	8	9.71570060029626	1.0	-20
636.5386581	n/a	2_3_1	37.0	8	10.015841400250793	1.0	-40
636.7384586	n/a	2_3_2	37.0	8	10.215641899965703	1.0	-60
638.0547766	 n/a	3	37.0	6	n/a	n/a	n/a
638.05744	0.75	3	37.0	13	0.75	n/a	-20
638.8104476	0.75	3	37.0	13	0.75	n/a	-20
639.5626577	0.75	3	37.0	13	0.75	n/a	-20
640.3291123	1	3	37.0	9	n/a	n/a	-60
640.3291123	1	3	37.0	10	n/a	n/a	OLL Error
641.3361306	n/a	3	37.0	7	n/a	n/a	15.75
642.2702847	n/a	3	38.0	3	n/a	n/a	n/a
642.2702847	9	3	38.0	4	n/a	n/a	9
651.2862481	2.5	3	38.0	5	n/a	n/a	2.5
651.7866434	n/a	6_3_0	38.0	8	9.516358699649572	1.0	-20
652.1363651	n/a	6_3_1	38.0	8	9.866080399602653	1.0	120
652.4863818	n/a	6_3_2	38.0	8	10.216097099706529	1.0	100
653.8026312	 n/a	3	38.0	6	n/a	n/a	n/a
653.8051348	0.75	3	38.0	13	0.75	n/a	-20
654.5581609	0.75	3	38.0	13	0.75	n/a	140
655.3111452	0.75	3	38.0	13	0.75	n/a	-20
656.0808199	1	3	38.0	9	n/a	n/a	100
656.0808199	1	3	38.0	10	n/a	n/a	ONLL Correct
657.0870875	n/a	3	38.0	7	n/a	n/a	15.75
658.0183046	n/a	5	39.0	3	n/a	n/a	n/a
658.0183046	9	5	39.0	4	n/a	n/a	9
667.0339517	2.5	5	39.0	5	n/a	n/a	2.5
667.5847564	n/a	5_5_0	39.0	8	9.566451800055804	1.0	-20
667.9009057	n/a	5_5_1	39.0	8	9.882601100020109	1.0	-40
668.1672478	n/a	5_5_2	39.0	8	10.148943200241773	1.0	100
668.4174172	n/a	5_5_3	39.0	8	10.399112599901855	1.0	80
668.65139	n/a	5_5_4	39.0	8	10.633085399866102	1.0	60
669.5500807	 n/a	5	39.0	6	n/a	n/a	n/a
669.5511864	0.75	5	39.0	13	0.75	n/a	-20
670.3039136	0.75	5	39.0	13	0.75	n/a	-20
671.0577241	0.75	5	39.0	13	0.75	n/a	140
671.8109949	0.75	5	39.0	13	0.75	n/a	-20
672.5641889	0.75	5	39.0	13	0.75	n/a	-20
673.331286	1	5	39.0	9	n/a	n/a	60
673.331286	1	5	39.0	10	n/a	n/a	Aversive Pruning
674.3363676	n/a	5	39.0	7	n/a	n/a	17.25
675.2662349	n/a	5	40.0	3	n/a	n/a	n/a
675.2662349	9	5	40.0	4	n/a	n/a	9
684.2822465	2.5	5	40.0	5	n/a	n/a	2.5
684.8488179	n/a	1_5_0	40.0	8	9.582582999952136	1.0	140
685.3648358	n/a	1_5_1	40.0	8	10.098600900266321	1.0	120
685.7812943	n/a	1_5_2	40.0	8	10.515059400349855	1.0	100
686.8260012	1	5	40.0	9	n/a	n/a	-200
686.8260012	1	5	40.0	10	n/a	n/a	Miss
687.8329081	n/a	5	40.0	7	n/a	n/a	17.25
692.5134717	n/a	4	41.0	3	n/a	n/a	n/a
692.5134717	9	4	41.0	4	n/a	n/a	9
701.5297679	2.5	4	41.0	5	n/a	n/a	2.5
702.9463126	n/a	4_4_0	41.0	8	10.432840900029989	-1.0	20
703.1802427	n/a	4_4_1	41.0	8	10.666771000251174	1.0	0
703.4298449	n/a	4_4_2	41.0	8	10.916373200248929	-1.0	-70
703.8631497	n/a	4_4_3	41.0	8	11.349678000435233	-1.0	-50
704.0462682	 n/a	4	41.0	6	n/a	n/a	n/a
704.0488746	0.75	4	41.0	13	0.75	n/a	20
704.802479	0.75	4	41.0	13	0.75	n/a	-20
705.5547913	0.75	4	41.0	13	0.75	n/a	-70
706.307264	0.75	4	41.0	13	0.75	n/a	20
707.077424	1	4	41.0	9	n/a	n/a	-50
707.077424	1	4	41.0	10	n/a	n/a	ONLL Error
708.0841862	n/a	4	41.0	7	n/a	n/a	16.5
709.0259687	n/a	5	42.0	3	n/a	n/a	n/a
709.0259687	9	5	42.0	4	n/a	n/a	9
718.0273546	2.5	5	42.0	5	n/a	n/a	2.5
718.7780845	n/a	2_5_0	42.0	8	9.752115800045429	-1.0	-70
719.2948723	n/a	2_5_1	42.0	8	10.268903600052	-1.0	-140
719.7109308	n/a	2_5_2	42.0	8	10.684962099883704	1.0	0
719.8944404	n/a	2_5_3	42.0	8	10.868471699766816	1.0	-20
720.0949407	n/a	2_5_4	42.0	8	11.068971999920905	1.0	-40
720.5437688	 n/a	5	42.0	6	n/a	n/a	n/a
720.5454698	0.75	5	42.0	13	0.75	n/a	-70
721.2974806	0.75	5	42.0	13	0.75	n/a	-70
722.0506503	0.75	5	42.0	13	0.75	n/a	140
722.8033529	0.75	5	42.0	13	0.75	n/a	-20
723.5571891	0.75	5	42.0	13	0.75	n/a	-20
724.3234595	1	5	42.0	9	n/a	n/a	-40
724.3234595	1	5	42.0	10	n/a	n/a	Aversive Pruning
725.3296236	n/a	5	42.0	7	n/a	n/a	17.25
726.2738648	n/a	4	43.0	3	n/a	n/a	n/a
726.2738648	9	4	43.0	4	n/a	n/a	9
735.2750645	2.5	4	43.0	5	n/a	n/a	2.5
735.7751877	n/a	1_4_0	43.0	8	9.50132289994508	1.0	140
736.1757218	n/a	1_4_1	43.0	8	9.901856999844313	1.0	120
736.7594583	n/a	1_4_2	43.0	8	10.48559350008145	1.0	100
737.0584651	n/a	1_4_3	43.0	8	10.784600299783053	-1.0	120
737.7916263	 n/a	4	43.0	6	n/a	n/a	n/a
737.7939659	0.75	4	43.0	13	0.75	n/a	140
738.5483332	0.75	4	43.0	13	0.75	n/a	-20
739.3016968	0.75	4	43.0	13	0.75	n/a	-20
740.0544673	0.75	4	43.0	13	0.75	n/a	20
740.8203248	1	4	43.0	9	n/a	n/a	120
740.8203248	1	4	43.0	10	n/a	n/a	Aversive Pruning
741.8263517	n/a	4	43.0	7	n/a	n/a	16.5
742.7744568	n/a	3	44.0	3	n/a	n/a	n/a
742.7744568	9	3	44.0	4	n/a	n/a	9
751.7898878	2.5	3	44.0	5	n/a	n/a	2.5
752.223628	n/a	3_3_0	44.0	8	9.449171199928971	1.0	-20
752.5572496	n/a	3_3_1	44.0	8	9.782792800106106	-1.0	0
752.8901969	n/a	3_3_2	44.0	8	10.115740099921824	1.0	-20
754.3064122	 n/a	3	44.0	6	n/a	n/a	n/a
754.3090912	0.75	3	44.0	13	0.75	n/a	-20
755.0616222	0.75	3	44.0	13	0.75	n/a	20
755.8149232	0.75	3	44.0	13	0.75	n/a	-20
756.5808477	1	3	44.0	9	n/a	n/a	-20
756.5808477	1	3	44.0	10	n/a	n/a	Aversive Pruning
757.585345	n/a	3	44.0	7	n/a	n/a	15.75
758.5225661	n/a	4	45.0	3	n/a	n/a	n/a
758.5225661	9	4	45.0	4	n/a	n/a	9
767.5378281	2.5	4	45.0	5	n/a	n/a	2.5
768.2883996	n/a	5_4_0	45.0	8	9.765833499841392	1.0	-20
768.7384136	n/a	5_4_1	45.0	8	10.215847499668598	1.0	-40
769.1212618	n/a	5_4_2	45.0	8	10.598695700056853	1.0	100
769.8553772	n/a	5_4_3	45.0	8	11.332811099942775	1.0	80
770.0543541	 n/a	4	45.0	6	n/a	n/a	n/a
770.0565625	0.75	4	45.0	13	0.75	n/a	-20
770.809218	0.75	4	45.0	13	0.75	n/a	-20
771.5620238	0.75	4	45.0	13	0.75	n/a	140
772.3141588	0.75	4	45.0	13	0.75	n/a	-20
773.0793833	1	4	45.0	9	n/a	n/a	80
773.0793833	1	4	45.0	10	n/a	n/a	ONLL Correct
774.0855951	n/a	4	45.0	7	n/a	n/a	16.5
775.0203246	n/a	5	46.0	3	n/a	n/a	n/a
775.0203246	9	5	46.0	4	n/a	n/a	9
784.0355827	2.5	5	46.0	5	n/a	n/a	2.5
784.736323	n/a	3_5_0	46.0	8	9.715998400002716	1.0	-20
784.9530325	n/a	3_5_1	46.0	8	9.932707900181413	1.0	-40
785.169854	n/a	3_5_2	46.0	8	10.149529400281606	1.0	-60
785.3856982	n/a	3_5_3	46.0	8	10.365373600274324	1.0	-80
785.5854484	n/a	3_5_4	46.0	8	10.565123800188305	1.0	60
786.5522596	 n/a	5	46.0	6	n/a	n/a	n/a
786.5541408	0.75	5	46.0	13	0.75	n/a	-20
787.3076451	0.75	5	46.0	13	0.75	n/a	-20
788.0599126	0.75	5	46.0	13	0.75	n/a	-20
788.8134498	0.75	5	46.0	13	0.75	n/a	-20
789.5661	0.75	5	46.0	13	0.75	n/a	140
790.3334154	1	5	46.0	9	n/a	n/a	60
790.3334154	1	5	46.0	10	n/a	n/a	ONLL Correct
791.339498	n/a	5	46.0	7	n/a	n/a	17.25
792.2678264	n/a	5	47.0	3	n/a	n/a	n/a
792.2678264	9	5	47.0	4	n/a	n/a	9
801.2841701	2.5	5	47.0	5	n/a	n/a	2.5
803.8238892	1	5	47.0	9	n/a	n/a	-200
803.8238892	1	5	47.0	10	n/a	n/a	Miss
804.8301978	n/a	5	47.0	7	n/a	n/a	17.25
809.5149956	n/a	3	48.0	3	n/a	n/a	n/a
809.5149956	9	3	48.0	4	n/a	n/a	9
818.5311566	2.5	3	48.0	5	n/a	n/a	2.5
818.7648688	n/a	1_3_0	48.0	8	9.249873199965805	1.0	140
818.9818095	n/a	1_3_1	48.0	8	9.466813900042323	1.0	120
819.2986458	n/a	1_3_2	48.0	8	9.783650199882686	1.0	100
821.0312718	 n/a	3	48.0	6	n/a	n/a	n/a
821.0341742	0.75	3	48.0	13	0.75	n/a	140
821.7886081	0.75	3	48.0	13	0.75	n/a	-20
822.5410556	0.75	3	48.0	13	0.75	n/a	-20
823.3073192	1	3	48.0	9	n/a	n/a	100
823.3073192	1	3	48.0	10	n/a	n/a	ONLL Correct
824.3137421	n/a	3	48.0	7	n/a	n/a	15.75
825.2640235	n/a	4	49.0	3	n/a	n/a	n/a
825.2640235	9	4	49.0	4	n/a	n/a	9
834.2794994	2.5	4	49.0	5	n/a	n/a	2.5
835.1628864	n/a	6_4_0	49.0	8	9.898862900212409	1.0	-20
835.5301061	n/a	6_4_1	49.0	8	10.266082599759102	1.0	120
835.8798432	n/a	6_4_2	49.0	8	10.615819700062275	1.0	100
836.2464577	n/a	6_4_3	49.0	8	10.982434200122952	1.0	80
836.7959759	 n/a	4	49.0	6	n/a	n/a	n/a
836.7984745	0.75	4	49.0	13	0.75	n/a	-20
837.5518314	0.75	4	49.0	13	0.75	n/a	140
838.3047992	0.75	4	49.0	13	0.75	n/a	-20
839.0569096	0.75	4	49.0	13	0.75	n/a	-20
839.8236897	1	4	49.0	9	n/a	n/a	80
839.8236897	1	4	49.0	10	n/a	n/a	ONLL Correct
840.8301162	n/a	4	49.0	7	n/a	n/a	16.5
841.7760377	n/a	4	50.0	3	n/a	n/a	n/a
841.7760377	9	4	50.0	4	n/a	n/a	9
850.777172	2.5	4	50.0	5	n/a	n/a	2.5
851.2112248	n/a	2_4_0	50.0	8	9.435187099967152	1.0	-20
851.477776	n/a	2_4_1	50.0	8	9.701738299801946	1.0	-40
851.8612723	n/a	2_4_2	50.0	8	10.085234600119293	-1.0	-20
852.2113107	n/a	2_4_3	50.0	8	10.43527300003916	1.0	-40
853.2940223	 n/a	4	50.0	6	n/a	n/a	n/a
853.2960441	0.75	4	50.0	13	0.75	n/a	-20
854.0488424	0.75	4	50.0	13	0.75	n/a	-20
854.803231	0.75	4	50.0	13	0.75	n/a	20
855.5564615	0.75	4	50.0	13	0.75	n/a	-20
856.3238593	1	4	50.0	9	n/a	n/a	-40
856.3238593	1	4	50.0	10	n/a	n/a	OLL Error
857.3300646	n/a	4	50.0	7	n/a	n/a	16.5
858.2764208	n/a	5	51.0	3	n/a	n/a	n/a
858.2764208	9	5	51.0	4	n/a	n/a	9
867.2918794	2.5	5	51.0	5	n/a	n/a	2.5
867.759501	n/a	4_5_0	51.0	8	9.483080199919641	1.0	-20
868.0916296	n/a	4_5_1	51.0	8	9.815208800137043	1.0	-40
868.3926965	n/a	4_5_2	51.0	8	10.116275699809194	1.0	-60
868.7090294	n/a	4_5_3	51.0	8	10.43260859977454	1.0	80
869.0252603	n/a	4_5_4	51.0	8	10.748839499894528	1.0	60
869.8081152	 n/a	5	51.0	6	n/a	n/a	n/a
869.8096708	0.75	5	51.0	13	0.75	n/a	-20
870.5637775	0.75	5	51.0	13	0.75	n/a	-20
871.3177528	0.75	5	51.0	13	0.75	n/a	-20
872.0717185	0.75	5	51.0	13	0.75	n/a	140
872.8254384	0.75	5	51.0	13	0.75	n/a	-20
873.5919021	1	5	51.0	9	n/a	n/a	60
873.5919021	1	5	51.0	10	n/a	n/a	ONLL Correct
874.5982963	n/a	5	51.0	7	n/a	n/a	17.25
875.5240843	n/a	3	52.0	3	n/a	n/a	n/a
875.5240843	9	3	52.0	4	n/a	n/a	9
884.5398945	2.5	3	52.0	5	n/a	n/a	2.5
884.8899634	n/a	4_3_0	52.0	8	9.365879100281743	-1.0	20
885.7403943	n/a	4_3_1	52.0	8	10.216310000047088	1.0	0
885.9899765	n/a	4_3_2	52.0	8	10.465892200358214	1.0	-20
887.0560657	 n/a	3	52.0	6	n/a	n/a	n/a
887.0584251	0.75	3	52.0	13	0.75	n/a	20
887.8118451	0.75	3	52.0	13	0.75	n/a	-20
888.5646088	0.75	3	52.0	13	0.75	n/a	-20
889.3329009	1	3	52.0	9	n/a	n/a	-20
889.3329009	1	3	52.0	10	n/a	n/a	Aversive Pruning
890.3390839	n/a	3	52.0	7	n/a	n/a	15.75
891.2719576	n/a	3	53.0	3	n/a	n/a	n/a
891.2719576	9	3	53.0	4	n/a	n/a	9
900.2875761	2.5	3	53.0	5	n/a	n/a	2.5
900.7382372	n/a	5_3_0	53.0	8	9.466279599815607	1.0	-20
901.0883734	n/a	5_3_1	53.0	8	9.81641579978168	1.0	-40
901.4544689	n/a	5_3_2	53.0	8	10.182511299848557	1.0	100
902.8041398	 n/a	3	53.0	6	n/a	n/a	n/a
902.8063809	0.75	3	53.0	13	0.75	n/a	-20
903.5592779	0.75	3	53.0	13	0.75	n/a	-20
904.3109132	0.75	3	53.0	13	0.75	n/a	140
905.0793938	1	3	53.0	9	n/a	n/a	100
905.0793938	1	3	53.0	10	n/a	n/a	ONLL Correct
906.0858305	n/a	3	53.0	7	n/a	n/a	15.75
907.0199278	n/a	4	54.0	3	n/a	n/a	n/a
907.0199278	9	4	54.0	4	n/a	n/a	9
916.0354734	2.5	4	54.0	5	n/a	n/a	2.5
916.5029235	n/a	3_4_0	54.0	8	9.482995699625464	1.0	-20
917.0196866	n/a	3_4_1	54.0	8	9.99975880002603	-1.0	0
917.4359198	n/a	3_4_2	54.0	8	10.415991999674588	1.0	-20
917.6528257	n/a	3_4_3	54.0	8	10.632897899951788	1.0	-40
918.552198	 n/a	4	54.0	6	n/a	n/a	n/a
918.554342	0.75	4	54.0	13	0.75	n/a	-20
919.3084125	0.75	4	54.0	13	0.75	n/a	20
920.0609022	0.75	4	54.0	13	0.75	n/a	-20
920.8139062	0.75	4	54.0	13	0.75	n/a	-20
921.5783164	1	4	54.0	9	n/a	n/a	-40
921.5783164	1	4	54.0	10	n/a	n/a	OLL Error
922.5850994	n/a	4	54.0	7	n/a	n/a	16.5
923.5180816	n/a	3	55.0	3	n/a	n/a	n/a
923.5180816	9	3	55.0	4	n/a	n/a	9
932.5339257	2.5	3	55.0	5	n/a	n/a	2.5
932.9178238	n/a	2_3_0	55.0	8	9.399742200039329	1.0	-20
933.2344551	n/a	2_3_1	55.0	8	9.716373499948533	1.0	-40
933.5844464	n/a	2_3_2	55.0	8	10.066364800091831	-1.0	-20
935.0499605	 n/a	3	55.0	6	n/a	n/a	n/a
935.052553	0.75	3	55.0	13	0.75	n/a	-20
935.8053242	0.75	3	55.0	13	0.75	n/a	-20
936.5591226	0.75	3	55.0	13	0.75	n/a	20
937.3246437	1	3	55.0	9	n/a	n/a	-20
937.3246437	1	3	55.0	10	n/a	n/a	Aversive Pruning
938.3312858	n/a	3	55.0	7	n/a	n/a	15.75
939.2804691	n/a	3	56.0	3	n/a	n/a	n/a
939.2804691	9	3	56.0	4	n/a	n/a	9
948.2810716	2.5	3	56.0	5	n/a	n/a	2.5
948.7814209	n/a	6_3_0	56.0	8	9.500951800029725	1.0	-20
949.1152889	n/a	6_3_1	56.0	8	9.83481980022043	1.0	120
949.4319086	n/a	6_3_2	56.0	8	10.151439500041308	1.0	100
950.7813329	 n/a	3	56.0	6	n/a	n/a	n/a
950.7843315	0.75	3	56.0	13	0.75	n/a	-20
951.5378805	0.75	3	56.0	13	0.75	n/a	140
952.2918184	0.75	3	56.0	13	0.75	n/a	-20
953.0603902	1	3	56.0	9	n/a	n/a	100
953.0603902	1	3	56.0	10	n/a	n/a	ONLL Correct
954.0674016	n/a	3	56.0	7	n/a	n/a	15.75
955.0153402	n/a	5	57.0	3	n/a	n/a	n/a
955.0153402	9	5	57.0	4	n/a	n/a	9
964.0295796	2.5	5	57.0	5	n/a	n/a	2.5
965.0297671	n/a	5_5_0	57.0	8	10.014426900073888	1.0	-20
965.5137769	n/a	5_5_1	57.0	8	10.498436699621381	1.0	-40
965.963792	n/a	5_5_2	57.0	8	10.948451799806206	1.0	100
966.5720246	1	5	57.0	9	n/a	n/a	-200
966.5720246	1	5	57.0	10	n/a	n/a	Miss
967.5776182	n/a	5	57.0	7	n/a	n/a	17.25
972.2616799	n/a	5	58.0	3	n/a	n/a	n/a
972.2616799	9	5	58.0	4	n/a	n/a	9
981.2782078	2.5	5	58.0	5	n/a	n/a	2.5
982.177968	n/a	1_5_0	58.0	8	9.91628810018301	1.0	140
982.4953041	n/a	1_5_1	58.0	8	10.233624200336637	1.0	120
982.7933889	n/a	1_5_2	58.0	8	10.531709000002591	1.0	100
983.4123822	n/a	1_5_3	58.0	8	11.150702300015835	1.0	80
983.8183499	1	5	58.0	9	n/a	n/a	-200
983.8183499	1	5	58.0	10	n/a	n/a	Miss
984.8240192	n/a	5	58.0	7	n/a	n/a	17.25
989.5258485	n/a	5	59.0	3	n/a	n/a	n/a
989.5258485	9	5	59.0	4	n/a	n/a	9
998.5418158	2.5	5	59.0	5	n/a	n/a	2.5
999.0588631	n/a	2_5_0	59.0	8	9.533014600165187	1.0	-20
999.9255846	n/a	2_5_1	59.0	8	10.399736099876463	1.0	-40
1000.1418351	n/a	2_5_2	59.0	8	10.615986600052564	1.0	-60
1000.3420683	n/a	2_5_3	59.0	8	10.816219800151883	1.0	-80
1000.5587206	n/a	2_5_4	59.0	8	11.032872099895028	1.0	-100
1001.0585102	 n/a	5	59.0	6	n/a	n/a	n/a
1001.0610073	0.75	5	59.0	13	0.75	n/a	-20
1001.8141661	0.75	5	59.0	13	0.75	n/a	-20
1002.5675708	0.75	5	59.0	13	0.75	n/a	-20
1003.3196529	0.75	5	59.0	13	0.75	n/a	-20
1004.0739032	0.75	5	59.0	13	0.75	n/a	-20
1004.8416199	1	5	59.0	9	n/a	n/a	-100
1004.8416199	1	5	59.0	10	n/a	n/a	OLL Error
1005.8470006	n/a	5	59.0	7	n/a	n/a	17.25
1006.7740602	n/a	5	60.0	3	n/a	n/a	n/a
1006.7740602	9	5	60.0	4	n/a	n/a	9
1015.7896349	2.5	5	60.0	5	n/a	n/a	2.5
1017.1066625	n/a	3_5_0	60.0	8	10.33260230021551	1.0	-20
1017.7559593	n/a	3_5_1	60.0	8	10.981899099890144	-1.0	0
1018.3332815	1	5	60.0	9	n/a	n/a	-200
1018.3332815	1	5	60.0	10	n/a	n/a	Miss
1019.3396137	n/a	5	60.0	7	n/a	n/a	17.25
1024.0214205	n/a	4	61.0	3	n/a	n/a	n/a
1024.0214205	9	4	61.0	4	n/a	n/a	9
1033.0375931	2.5	4	61.0	5	n/a	n/a	2.5
1035.5691358	1	4	61.0	9	n/a	n/a	-200
1035.5691358	1	4	61.0	10	n/a	n/a	Miss
1036.5757227	n/a	4	61.0	7	n/a	n/a	16.5
1040.5195309	n/a	3	62.0	3	n/a	n/a	n/a
1040.5195309	9	3	62.0	4	n/a	n/a	9
1049.5352665	2.5	3	62.0	5	n/a	n/a	2.5
1049.9865608	n/a	3_3_0	62.0	8	9.467029900290072	1.0	-20
1050.385705	n/a	3_3_1	62.0	8	9.866174099966882	-1.0	0
1050.9189227	n/a	3_3_2	62.0	8	10.399391800165175	-1.0	-70
1052.0517071	 n/a	3	62.0	6	n/a	n/a	n/a
1052.0536139	0.75	3	62.0	13	0.75	n/a	-20
1052.8065943	0.75	3	62.0	13	0.75	n/a	20
1053.5596595	0.75	3	62.0	13	0.75	n/a	-70
1054.3273452	1	3	62.0	9	n/a	n/a	-70
1054.3273452	1	3	62.0	10	n/a	n/a	OLL Error
1055.3332231	n/a	3	62.0	7	n/a	n/a	15.75
1056.2678186	n/a	4	63.0	3	n/a	n/a	n/a
1056.2678186	9	4	63.0	4	n/a	n/a	9
1065.283713	2.5	4	63.0	5	n/a	n/a	2.5
1067.8220976	1	4	63.0	9	n/a	n/a	-200
1067.8220976	1	4	63.0	10	n/a	n/a	Miss
1068.8301004	n/a	4	63.0	7	n/a	n/a	16.5
1072.7653202	n/a	3	64.0	3	n/a	n/a	n/a
1072.7653202	9	3	64.0	4	n/a	n/a	9
1081.7813523	2.5	3	64.0	5	n/a	n/a	2.5
1082.1659144	n/a	4_3_0	64.0	8	9.400594200007617	1.0	-20
1082.498932	n/a	4_3_1	64.0	8	9.733611799776554	-1.0	-90
1082.8481766	n/a	4_3_2	64.0	8	10.082856399938462	-1.0	-70
1084.297881	 n/a	3	64.0	6	n/a	n/a	n/a
1084.2994757	0.75	3	64.0	13	0.75	n/a	-20
1085.0535441	0.75	3	64.0	13	0.75	n/a	-70
1085.8064876	0.75	3	64.0	13	0.75	n/a	20
1086.5715344	1	3	64.0	9	n/a	n/a	-70
1086.5715344	1	3	64.0	10	n/a	n/a	OLL Error
1087.5783018	n/a	3	64.0	7	n/a	n/a	15.75
1088.5279368	n/a	4	65.0	3	n/a	n/a	n/a
1088.5279368	9	4	65.0	4	n/a	n/a	9
1097.5293018	2.5	4	65.0	5	n/a	n/a	2.5
1099.2632102	n/a	5_4_0	65.0	8	10.735273400321605	1.0	-20
1099.5132104	n/a	5_4_1	65.0	8	10.985273600090297	1.0	-40
1099.7131379	n/a	5_4_2	65.0	8	11.185201100073755	1.0	100
1099.9128137	n/a	5_4_3	65.0	8	11.384876899886875	1.0	80
1100.0458526	 n/a	4	65.0	6	n/a	n/a	n/a
1100.0481173	0.75	4	65.0	13	0.75	n/a	-20
1100.8001214	0.75	4	65.0	13	0.75	n/a	-20
1101.5534799	0.75	4	65.0	13	0.75	n/a	140
1102.3065354	0.75	4	65.0	13	0.75	n/a	-20
1103.075304	1	4	65.0	9	n/a	n/a	80
1103.075304	1	4	65.0	10	n/a	n/a	ONLL Correct
1104.0808554	n/a	4	65.0	7	n/a	n/a	16.5
1105.0286234	n/a	5	66.0	3	n/a	n/a	n/a
1105.0286234	9	5	66.0	4	n/a	n/a	9
1114.04422	2.5	5	66.0	5	n/a	n/a	2.5
1116.5796192	1	5	66.0	9	n/a	n/a	-200
1116.5796192	1	5	66.0	10	n/a	n/a	Miss
1117.5852675	n/a	5	66.0	7	n/a	n/a	17.25
1122.2753291	n/a	3	67.0	3	n/a	n/a	n/a
1122.2753291	9	3	67.0	4	n/a	n/a	9
1131.2753793	2.5	3	67.0	5	n/a	n/a	2.5
1131.892186	n/a	1_3_0	67.0	8	9.616856900043787	1.0	140
1132.1591086	n/a	1_3_1	67.0	8	9.883779500145463	1.0	120
1132.3755778	n/a	1_3_2	67.0	8	10.100248700007796	1.0	100
1133.7917816	 n/a	3	67.0	6	n/a	n/a	n/a
1133.7936788	0.75	3	67.0	13	0.75	n/a	140
1134.5468379	0.75	3	67.0	13	0.75	n/a	-20
1135.3001441	0.75	3	67.0	13	0.75	n/a	-20
1136.0678305	1	3	67.0	9	n/a	n/a	100
1136.0678305	1	3	67.0	10	n/a	n/a	ONLL Correct
1137.0743535	n/a	3	67.0	7	n/a	n/a	15.75
1138.0239593	n/a	4	68.0	3	n/a	n/a	n/a
1138.0239593	9	4	68.0	4	n/a	n/a	9
1147.0396348	2.5	4	68.0	5	n/a	n/a	2.5
1149.0570304	n/a	6_4_0	68.0	8	11.0330710997805	1.0	-20
1149.2569193	n/a	6_4_1	68.0	8	11.232960000168534	1.0	120
1149.4395155	n/a	6_4_2	68.0	8	11.415556199848652	1.0	100
1149.5801312	1	4	68.0	9	n/a	n/a	-200
1149.5801312	1	4	68.0	10	n/a	n/a	Miss
1150.5856757	n/a	4	68.0	7	n/a	n/a	16.5
1154.5214093	n/a	4	69.0	3	n/a	n/a	n/a
1154.5214093	9	4	69.0	4	n/a	n/a	9
1163.5380379	2.5	4	69.0	5	n/a	n/a	2.5
1164.0714561	n/a	2_4_0	69.0	8	9.55004679970443	1.0	-20
1165.0547545	n/a	2_4_1	69.0	8	10.53334519965574	-1.0	-90
1165.3540373	n/a	2_4_2	69.0	8	10.83262800006196	1.0	-110
1165.5208544	n/a	2_4_3	69.0	8	10.999445099849256	1.0	30
1166.0541897	 n/a	4	69.0	6	n/a	n/a	n/a
1166.0562794	0.75	4	69.0	13	0.75	n/a	-20
1166.8088494	0.75	4	69.0	13	0.75	n/a	-70
1167.5623724	0.75	4	69.0	13	0.75	n/a	-20
1168.3160811	0.75	4	69.0	13	0.75	n/a	140
1169.0816988	1	4	69.0	9	n/a	n/a	30
1169.0816988	1	4	69.0	10	n/a	n/a	OLL Correct
1170.0884938	n/a	4	69.0	7	n/a	n/a	16.5
1171.0194908	n/a	5	70.0	3	n/a	n/a	n/a
1171.0194908	9	5	70.0	4	n/a	n/a	9
1180.0355626	2.5	5	70.0	5	n/a	n/a	2.5
1180.5026854	n/a	4_5_0	70.0	8	9.483194600325078	1.0	-20
1180.8356714	n/a	4_5_1	70.0	8	9.816180600319056	1.0	-40
1181.1021319	n/a	4_5_2	70.0	8	10.082641100045292	1.0	-60
1181.3687539	n/a	4_5_3	70.0	8	10.349263099953534	1.0	80
1181.6020387	n/a	4_5_4	70.0	8	10.582547900266944	1.0	60
1182.5520444	 n/a	5	70.0	6	n/a	n/a	n/a
1182.553849	0.75	5	70.0	13	0.75	n/a	-20
1183.3070953	0.75	5	70.0	13	0.75	n/a	-20
1184.0602984	0.75	5	70.0	13	0.75	n/a	-20
1184.8140073	0.75	5	70.0	13	0.75	n/a	140
1185.5671356	0.75	5	70.0	13	0.75	n/a	-20
1186.335123	1	5	70.0	9	n/a	n/a	60
1186.335123	1	5	70.0	10	n/a	n/a	ONLL Correct
1187.3419306	n/a	5	70.0	7	n/a	n/a	17.25
1188.2678274	n/a	3	71.0	3	n/a	n/a	n/a
1188.2678274	9	3	71.0	4	n/a	n/a	9
1197.2832223	2.5	3	71.0	5	n/a	n/a	2.5
1197.8003998	n/a	5_3_0	71.0	8	9.532572399824858	1.0	-20
1198.2331481	n/a	5_3_1	71.0	8	9.965320699848236	1.0	-40
1198.5668037	n/a	5_3_2	71.0	8	10.298976299818603	1.0	100
1199.7833915	 n/a	3	71.0	6	n/a	n/a	n/a
1199.7858312	0.75	3	71.0	13	0.75	n/a	-20
1200.5379953	0.75	3	71.0	13	0.75	n/a	-20
1201.2918225	0.75	3	71.0	13	0.75	n/a	140
1202.0577541	1	3	71.0	9	n/a	n/a	100
1202.0577541	1	3	71.0	10	n/a	n/a	ONLL Correct
1203.0637153	n/a	3	71.0	7	n/a	n/a	15.75
1207.0241897	n/a	n/a	n/a	99	n/a	n/a	n/a
