onset	duration	trial_type	trial_number	bandit_num	mean_type	left_reward	right_reward	left_mean	right_mean	force_pos	response	response_time	points
n/a	n/a	h1	0.0	0.0	LH	40.0	64.0	40.0	52.0	L	left	118.3038	40.0
n/a	n/a	h1	0.0	1.0	LH	44.0	48.0	40.0	52.0	L	left	0.786199999928	84.0
n/a	n/a	h1	0.0	2.0	LH	58.0	52.0	40.0	52.0	R	right	0.870299999952	136.0
n/a	n/a	h1	0.0	3.0	LH	40.0	62.0	40.0	52.0	L	left	0.419	176.0
n/a	n/a	h1	0.0	4.0	LH	52.0	40.0	40.0	52.0	X	left	1.28619999993	228.0
n/a	n/a	h6	1.0	0.0	LH	58.0	58.0	60.0	64.0	R	right	0.516200000048	286.0
n/a	n/a	h6	1.0	1.0	LH	59.0	60.0	60.0	64.0	L	left	0.319200000048	345.0
n/a	n/a	h6	1.0	2.0	LH	61.0	64.0	60.0	64.0	R	right	0.418700000048	409.0
n/a	n/a	h6	1.0	3.0	LH	55.0	63.0	60.0	64.0	R	right	1.2689000001	472.0
n/a	n/a	h6	1.0	4.0	LH	69.0	69.0	60.0	64.0	X	right	1.26879999995	541.0
n/a	n/a	h6	1.0	5.0	LH	58.0	77.0	60.0	64.0	X	right	1.12670000005	618.0
n/a	n/a	h6	1.0	6.0	LH	51.0	47.0	60.0	64.0	X	right	0.451199999928	665.0
n/a	n/a	h6	1.0	7.0	LH	52.0	56.0	60.0	64.0	X	left	1.25680000007	717.0
n/a	n/a	h6	1.0	8.0	LH	62.0	56.0	60.0	64.0	X	right	0.687399999976	773.0
n/a	n/a	h6	1.0	9.0	LH	61.0	72.0	60.0	64.0	X	right	0.653299999952	845.0
n/a	n/a	h1	2.0	0.0	LH	48.0	67.0	40.0	70.0	R	right	1.41120000005	912.0
n/a	n/a	h1	2.0	1.0	LH	47.0	62.0	40.0	70.0	L	left	0.500900000095	959.0
n/a	n/a	h1	2.0	2.0	LH	39.0	62.0	40.0	70.0	R	right	0.325	1021.0
n/a	n/a	h1	2.0	3.0	LH	35.0	65.0	40.0	70.0	L	left	0.418100000024	1056.0
n/a	n/a	h1	2.0	4.0	LH	50.0	67.0	40.0	70.0	X	left	0.633899999976	1106.0
n/a	n/a	h1	3.0	0.0	LH	31.0	44.0	28.0	40.0	R	right	0.351899999976	1150.0
n/a	n/a	h1	3.0	1.0	LH	27.0	54.0	28.0	40.0	L	left	0.635	1177.0
n/a	n/a	h1	3.0	2.0	LH	25.0	39.0	28.0	40.0	R	right	0.219100000024	1216.0
n/a	n/a	h1	3.0	3.0	LH	29.0	30.0	28.0	40.0	L	left	0.4185	1245.0
n/a	n/a	h1	3.0	4.0	LH	29.0	47.0	28.0	40.0	X	right	1.23729999995	1292.0
n/a	n/a	h1	4.0	0.0	HL	67.0	22.0	60.0	30.0	R	right	0.416	1314.0
n/a	n/a	h1	4.0	1.0	HL	55.0	38.0	60.0	30.0	R	right	0.302	1352.0
n/a	n/a	h1	4.0	2.0	HL	83.0	34.0	60.0	30.0	R	right	0.298899999976	1386.0
n/a	n/a	h1	4.0	3.0	HL	67.0	27.0	60.0	30.0	L	left	0.275799999952	1453.0
n/a	n/a	h1	4.0	4.0	HL	64.0	30.0	60.0	30.0	X	right	1.4114000001	1483.0
n/a	n/a	h1	5.0	0.0	HL	75.0	55.0	72.0	60.0	L	left	1.00239999998	1558.0
n/a	n/a	h1	5.0	1.0	HL	62.0	75.0	72.0	60.0	R	right	0.4405	1633.0
n/a	n/a	h1	5.0	2.0	HL	69.0	58.0	72.0	60.0	L	left	0.785100000024	1702.0
n/a	n/a	h1	5.0	3.0	HL	69.0	50.0	72.0	60.0	R	right	2.10539999998	1752.0
n/a	n/a	h1	5.0	4.0	HL	81.0	50.0	72.0	60.0	X	left	0.835	1833.0
n/a	n/a	h1	6.0	0.0	HL	62.0	66.0	68.0	60.0	R	right	0.471399999976	1899.0
n/a	n/a	h1	6.0	1.0	HL	76.0	44.0	68.0	60.0	L	left	1.728	1975.0
n/a	n/a	h1	6.0	2.0	HL	60.0	51.0	68.0	60.0	L	left	0.403599999905	2035.0
n/a	n/a	h1	6.0	3.0	HL	57.0	54.0	68.0	60.0	R	right	0.449	2089.0
n/a	n/a	h1	6.0	4.0	HL	63.0	47.0	68.0	60.0	X	left	1.5355	2152.0
n/a	n/a	h1	7.0	0.0	HL	39.0	32.0	44.0	40.0	L	left	0.686100000024	2191.0
n/a	n/a	h1	7.0	1.0	HL	49.0	52.0	44.0	40.0	L	left	0.719200000048	2240.0
n/a	n/a	h1	7.0	2.0	HL	39.0	32.0	44.0	40.0	L	left	0.302900000095	2279.0
n/a	n/a	h1	7.0	3.0	HL	36.0	47.0	44.0	40.0	R	right	0.318	2326.0
n/a	n/a	h1	7.0	4.0	HL	39.0	37.0	44.0	40.0	X	right	0.423399999976	2363.0
n/a	n/a	h6	8.0	0.0	HL	96.0	65.0	90.0	60.0	L	left	0.435399999976	2459.0
n/a	n/a	h6	8.0	1.0	HL	88.0	57.0	90.0	60.0	L	left	0.440799999952	2547.0
n/a	n/a	h6	8.0	2.0	HL	84.0	59.0	90.0	60.0	R	right	0.272299999952	2606.0
n/a	n/a	h6	8.0	3.0	HL	76.0	67.0	90.0	60.0	R	right	0.5015	2673.0
n/a	n/a	h6	8.0	4.0	HL	99.0	71.0	90.0	60.0	X	left	0.374599999905	2772.0
n/a	n/a	h6	8.0	5.0	HL	92.0	41.0	90.0	60.0	X	left	0.578	2864.0
n/a	n/a	h6	8.0	6.0	HL	81.0	65.0	90.0	60.0	X	left	0.667700000048	2945.0
n/a	n/a	h6	8.0	7.0	HL	95.0	52.0	90.0	60.0	X	left	0.351700000048	3040.0
n/a	n/a	h6	8.0	8.0	HL	90.0	70.0	90.0	60.0	X	left	0.270200000048	3130.0
n/a	n/a	h6	8.0	9.0	HL	99.0	56.0	90.0	60.0	X	left	0.220200000048	3229.0
n/a	n/a	h6	9.0	0.0	HL	39.0	36.0	40.0	36.0	R	right	0.352899999976	3265.0
n/a	n/a	h6	9.0	1.0	HL	31.0	21.0	40.0	36.0	R	right	0.317700000048	3286.0
n/a	n/a	h6	9.0	2.0	HL	46.0	27.0	40.0	36.0	L	left	0.282799999952	3332.0
n/a	n/a	h6	9.0	3.0	HL	26.0	50.0	40.0	36.0	L	left	0.470600000024	3358.0
n/a	n/a	h6	9.0	4.0	HL	41.0	28.0	40.0	36.0	X	right	1.85339999998	3386.0
n/a	n/a	h6	9.0	5.0	HL	35.0	37.0	40.0	36.0	X	right	1.08670000005	3423.0
n/a	n/a	h6	9.0	6.0	HL	36.0	38.0	40.0	36.0	X	left	0.442600000024	3459.0
n/a	n/a	h6	9.0	7.0	HL	46.0	22.0	40.0	36.0	X	right	0.769	3481.0
n/a	n/a	h6	9.0	8.0	HL	35.0	32.0	40.0	36.0	X	left	0.368	3516.0
n/a	n/a	h6	9.0	9.0	HL	37.0	30.0	40.0	36.0	X	left	0.0546999999284	3553.0
n/a	n/a	h1	10.0	0.0	HL	70.0	46.0	60.0	40.0	R	right	0.464799999952	3599.0
n/a	n/a	h1	10.0	1.0	HL	54.0	36.0	60.0	40.0	R	right	0.599700000048	3635.0
n/a	n/a	h1	10.0	2.0	HL	46.0	26.0	60.0	40.0	R	right	0.251600000024	3661.0
n/a	n/a	h1	10.0	3.0	HL	68.0	32.0	60.0	40.0	L	left	0.569799999952	3729.0
n/a	n/a	h1	10.0	4.0	HL	61.0	46.0	60.0	40.0	X	left	1.09929999995	3790.0
n/a	n/a	h1	11.0	0.0	HL	30.0	11.0	40.0	10.0	R	right	0.435599999905	3801.0
n/a	n/a	h1	11.0	1.0	HL	39.0	7.0	40.0	10.0	L	left	0.234699999928	3840.0
n/a	n/a	h1	11.0	2.0	HL	45.0	1.0	40.0	10.0	R	right	0.1665	3841.0
n/a	n/a	h1	11.0	3.0	HL	34.0	9.0	40.0	10.0	L	left	0.1025	3875.0
n/a	n/a	h1	11.0	4.0	HL	33.0	19.0	40.0	10.0	X	left	1.15239999998	3908.0
n/a	n/a	h6	12.0	0.0	LH	27.0	80.0	30.0	60.0	R	right	0.410399999976	3988.0
n/a	n/a	h6	12.0	1.0	LH	40.0	61.0	30.0	60.0	R	right	0.151400000095	4049.0
n/a	n/a	h6	12.0	2.0	LH	20.0	58.0	30.0	60.0	L	left	0.250299999952	4069.0
n/a	n/a	h6	12.0	3.0	LH	25.0	65.0	30.0	60.0	L	left	0.268	4094.0
n/a	n/a	h6	12.0	4.0	LH	34.0	60.0	30.0	60.0	X	right	0.341199999929	4154.0
n/a	n/a	h6	12.0	5.0	LH	33.0	53.0	30.0	60.0	X	right	0.4015	4207.0
n/a	n/a	h6	12.0	6.0	LH	33.0	73.0	30.0	60.0	X	right	0.105399999976	4280.0
n/a	n/a	h6	12.0	7.0	LH	18.0	45.0	30.0	60.0	X	left	0.0673000000716	4298.0
n/a	n/a	h6	12.0	8.0	LH	37.0	68.0	30.0	60.0	X	right	0.3845	4366.0
n/a	n/a	h6	12.0	9.0	LH	33.0	60.0	30.0	60.0	X	right	0.0178000000716	4426.0
n/a	n/a	h6	13.0	0.0	LH	58.0	58.0	60.0	64.0	R	right	1.2189000001	4484.0
n/a	n/a	h6	13.0	1.0	LH	59.0	60.0	60.0	64.0	L	left	0.936199999928	4543.0
n/a	n/a	h6	13.0	2.0	LH	61.0	64.0	60.0	64.0	R	right	1.56069999993	4607.0
n/a	n/a	h6	13.0	3.0	LH	55.0	61.0	60.0	64.0	R	right	1.30089999998	4668.0
n/a	n/a	h6	13.0	4.0	LH	73.0	70.0	60.0	64.0	X	right	0.760799999952	4738.0
n/a	n/a	h6	13.0	5.0	LH	69.0	59.0	60.0	64.0	X	right	0.369899999976	4797.0
n/a	n/a	h6	13.0	6.0	LH	58.0	75.0	60.0	64.0	X	right	0.558	4872.0
n/a	n/a	h6	13.0	7.0	LH	61.0	68.0	60.0	64.0	X	right	0.270899999976	4940.0
n/a	n/a	h6	13.0	8.0	LH	58.0	56.0	60.0	64.0	X	right	0.0513999999761	4996.0
n/a	n/a	h6	13.0	9.0	LH	62.0	79.0	60.0	64.0	X	right	1.08380000007	5075.0
n/a	n/a	h6	14.0	0.0	LH	44.0	39.0	40.0	48.0	R	right	1.73769999993	5114.0
n/a	n/a	h6	14.0	1.0	LH	50.0	55.0	40.0	48.0	R	right	0.668400000095	5169.0
n/a	n/a	h6	14.0	2.0	LH	53.0	56.0	40.0	48.0	L	left	0.455699999928	5222.0
n/a	n/a	h6	14.0	3.0	LH	49.0	58.0	40.0	48.0	R	right	0.367199999929	5280.0
n/a	n/a	h6	14.0	4.0	LH	40.0	44.0	40.0	48.0	X	right	0.818399999976	5324.0
n/a	n/a	h6	14.0	5.0	LH	43.0	57.0	40.0	48.0	X	right	0.334699999928	5381.0
n/a	n/a	h6	14.0	6.0	LH	39.0	43.0	40.0	48.0	X	left	0.000600000023837	5420.0
n/a	n/a	h6	14.0	7.0	LH	43.0	56.0	40.0	48.0	X	right	0.422099999905	5476.0
n/a	n/a	h6	14.0	8.0	LH	23.0	56.0	40.0	48.0	X	right	0.3355	5532.0
n/a	n/a	h6	14.0	9.0	LH	42.0	49.0	40.0	48.0	X	right	0.0426000000239	5581.0
n/a	n/a	h1	15.0	0.0	HL	65.0	59.0	68.0	60.0	L	left	0.3345	5646.0
n/a	n/a	h1	15.0	1.0	HL	57.0	61.0	68.0	60.0	R	right	0.320599999905	5707.0
n/a	n/a	h1	15.0	2.0	HL	54.0	48.0	68.0	60.0	L	left	0.271300000072	5761.0
n/a	n/a	h1	15.0	3.0	HL	70.0	58.0	68.0	60.0	L	left	0.475899999976	5831.0
n/a	n/a	h1	15.0	4.0	HL	69.0	51.0	68.0	60.0	X	left	0.884600000024	5900.0
n/a	n/a	h6	16.0	0.0	LH	72.0	71.0	60.0	64.0	L	left	0.555600000024	5972.0
n/a	n/a	h6	16.0	1.0	LH	65.0	87.0	60.0	64.0	L	left	0.6545	6037.0
n/a	n/a	h6	16.0	2.0	LH	61.0	70.0	60.0	64.0	R	right	0.302	6107.0
n/a	n/a	h6	16.0	3.0	LH	61.0	76.0	60.0	64.0	R	right	0.284600000024	6183.0
n/a	n/a	h6	16.0	4.0	LH	71.0	66.0	60.0	64.0	X	right	0.700200000048	6249.0
n/a	n/a	h6	16.0	5.0	LH	49.0	59.0	60.0	64.0	X	right	0.2525	6308.0
n/a	n/a	h6	16.0	6.0	LH	65.0	50.0	60.0	64.0	X	left	0.5675	6373.0
n/a	n/a	h6	16.0	7.0	LH	56.0	76.0	60.0	64.0	X	right	0.356299999952	6449.0
n/a	n/a	h6	16.0	8.0	LH	58.0	59.0	60.0	64.0	X	left	0.206799999952	6507.0
n/a	n/a	h6	16.0	9.0	LH	71.0	64.0	60.0	64.0	X	right	0.321	6571.0
n/a	n/a	h6	17.0	0.0	LH	43.0	58.0	40.0	52.0	L	left	0.918399999976	6614.0
n/a	n/a	h6	17.0	1.0	LH	32.0	39.0	40.0	52.0	R	right	0.235299999952	6653.0
n/a	n/a	h6	17.0	2.0	LH	45.0	53.0	40.0	52.0	L	left	0.708599999905	6698.0
n/a	n/a	h6	17.0	3.0	LH	62.0	60.0	40.0	52.0	R	right	0.334600000024	6758.0
n/a	n/a	h6	17.0	4.0	LH	32.0	54.0	40.0	52.0	X	right	0.269100000024	6812.0
n/a	n/a	h6	17.0	5.0	LH	52.0	51.0	40.0	52.0	X	right	0.250700000048	6863.0
n/a	n/a	h6	17.0	6.0	LH	46.0	54.0	40.0	52.0	X	right	0.523399999976	6917.0
n/a	n/a	h6	17.0	7.0	LH	55.0	58.0	40.0	52.0	X	right	0.000800000071536	6975.0
n/a	n/a	h6	17.0	8.0	LH	47.0	61.0	40.0	52.0	X	right	1.60220000005	7036.0
n/a	n/a	h6	17.0	9.0	LH	48.0	45.0	40.0	52.0	X	right	0.0842000000476	7081.0
n/a	n/a	h6	18.0	0.0	HL	28.0	15.0	40.0	20.0	L	left	0.523399999976	7109.0
n/a	n/a	h6	18.0	1.0	HL	53.0	16.0	40.0	20.0	L	left	0.351299999952	7162.0
n/a	n/a	h6	18.0	2.0	HL	55.0	28.0	40.0	20.0	L	left	0.367800000071	7217.0
n/a	n/a	h6	18.0	3.0	HL	53.0	20.0	40.0	20.0	R	right	0.7875	7237.0
n/a	n/a	h6	18.0	4.0	HL	53.0	3.0	40.0	20.0	X	right	0.251300000072	7240.0
n/a	n/a	h6	18.0	5.0	HL	40.0	15.0	40.0	20.0	X	right	0.285199999929	7255.0
n/a	n/a	h6	18.0	6.0	HL	45.0	4.0	40.0	20.0	X	right	0.668399999976	7259.0
n/a	n/a	h6	18.0	7.0	HL	41.0	28.0	40.0	20.0	X	left	0.135300000072	7300.0
n/a	n/a	h6	18.0	8.0	HL	43.0	25.0	40.0	20.0	X	left	0.236699999928	7343.0
n/a	n/a	h6	18.0	9.0	HL	47.0	26.0	40.0	20.0	X	left	0.319899999976	7390.0
n/a	n/a	h1	19.0	0.0	LH	66.0	43.0	56.0	60.0	L	left	1.08570000005	7456.0
n/a	n/a	h1	19.0	1.0	LH	33.0	67.0	56.0	60.0	R	right	0.284700000048	7523.0
n/a	n/a	h1	19.0	2.0	LH	42.0	59.0	56.0	60.0	L	left	0.418	7565.0
n/a	n/a	h1	19.0	3.0	LH	55.0	64.0	56.0	60.0	R	right	0.335100000024	7629.0
n/a	n/a	h1	19.0	4.0	LH	47.0	58.0	56.0	60.0	X	left	1.18589999998	7676.0
n/a	n/a	h1	20.0	0.0	LH	25.0	23.0	32.0	40.0	L	left	0.404400000095	7701.0
n/a	n/a	h1	20.0	1.0	LH	29.0	57.0	32.0	40.0	L	left	0.302299999952	7730.0
n/a	n/a	h1	20.0	2.0	LH	44.0	38.0	32.0	40.0	R	right	0.784700000048	7768.0
n/a	n/a	h1	20.0	3.0	LH	36.0	31.0	32.0	40.0	L	left	0.534899999976	7804.0
n/a	n/a	h1	20.0	4.0	LH	39.0	48.0	32.0	40.0	X	left	1.2545	7843.0
n/a	n/a	h6	21.0	0.0	HL	43.0	35.0	40.0	28.0	R	right	0.271900000095	7878.0
n/a	n/a	h6	21.0	1.0	HL	31.0	21.0	40.0	28.0	R	right	0.3685	7899.0
n/a	n/a	h6	21.0	2.0	HL	40.0	28.0	40.0	28.0	R	right	0.1205	7927.0
n/a	n/a	h6	21.0	3.0	HL	36.0	23.0	40.0	28.0	L	left	0.2675	7963.0
n/a	n/a	h6	21.0	4.0	HL	40.0	27.0	40.0	28.0	X	right	0.884799999952	7990.0
n/a	n/a	h6	21.0	5.0	HL	46.0	20.0	40.0	28.0	X	left	0.2845	8036.0
n/a	n/a	h6	21.0	6.0	HL	50.0	21.0	40.0	28.0	X	left	0.467600000024	8086.0
n/a	n/a	h6	21.0	7.0	HL	41.0	37.0	40.0	28.0	X	left	0.0848999999762	8127.0
n/a	n/a	h6	21.0	8.0	HL	44.0	19.0	40.0	28.0	X	left	0.201899999976	8171.0
n/a	n/a	h6	21.0	9.0	HL	37.0	25.0	40.0	28.0	X	left	0.539600000024	8208.0
n/a	n/a	h1	22.0	0.0	LH	32.0	76.0	40.0	60.0	L	left	0.635	8240.0
n/a	n/a	h1	22.0	1.0	LH	37.0	65.0	40.0	60.0	R	right	0.668199999928	8305.0
n/a	n/a	h1	22.0	2.0	LH	46.0	68.0	40.0	60.0	L	left	0.335200000048	8351.0
n/a	n/a	h1	22.0	3.0	LH	37.0	69.0	40.0	60.0	R	right	0.234800000072	8420.0
n/a	n/a	h1	22.0	4.0	LH	40.0	53.0	40.0	60.0	X	right	0.333899999976	8473.0
n/a	n/a	h6	23.0	0.0	HL	49.0	36.0	60.0	40.0	L	left	0.683900000095	8522.0
n/a	n/a	h6	23.0	1.0	HL	68.0	43.0	60.0	40.0	R	right	0.1665	8565.0
n/a	n/a	h6	23.0	2.0	HL	55.0	40.0	60.0	40.0	L	left	0.0893000000716	8620.0
n/a	n/a	h6	23.0	3.0	HL	67.0	41.0	60.0	40.0	R	right	0.622600000024	8661.0
n/a	n/a	h6	23.0	4.0	HL	49.0	34.0	60.0	40.0	X	left	0.517100000024	8710.0
n/a	n/a	h6	23.0	5.0	HL	57.0	35.0	60.0	40.0	X	right	0.550700000048	8745.0
n/a	n/a	h6	23.0	6.0	HL	55.0	50.0	60.0	40.0	X	right	0.357199999928	8795.0
n/a	n/a	h6	23.0	7.0	HL	54.0	28.0	60.0	40.0	X	left	0.6885	8849.0
n/a	n/a	h6	23.0	8.0	HL	66.0	35.0	60.0	40.0	X	left	0.240799999952	8915.0
n/a	n/a	h6	23.0	9.0	HL	54.0	40.0	60.0	40.0	X	left	0.151399999976	8969.0
n/a	n/a	h6	24.0	0.0	LH	40.0	38.0	40.0	48.0	L	left	0.683700000048	9009.0
n/a	n/a	h6	24.0	1.0	LH	37.0	44.0	40.0	48.0	L	left	0.771100000024	9046.0
n/a	n/a	h6	24.0	2.0	LH	60.0	44.0	40.0	48.0	R	right	0.911300000071	9090.0
n/a	n/a	h6	24.0	3.0	LH	42.0	52.0	40.0	48.0	R	right	0.241399999976	9142.0
n/a	n/a	h6	24.0	4.0	LH	52.0	55.0	40.0	48.0	X	right	2.0364000001	9197.0
n/a	n/a	h6	24.0	5.0	LH	46.0	51.0	40.0	48.0	X	right	0.6325	9248.0
n/a	n/a	h6	24.0	6.0	LH	50.0	51.0	40.0	48.0	X	left	0.0542000000477	9298.0
n/a	n/a	h6	24.0	7.0	LH	47.0	34.0	40.0	48.0	X	left	0.607	9345.0
n/a	n/a	h6	24.0	8.0	LH	30.0	49.0	40.0	48.0	X	right	0.1755	9394.0
n/a	n/a	h6	24.0	9.0	LH	29.0	53.0	40.0	48.0	X	right	0.551600000024	9447.0
n/a	n/a	h6	25.0	0.0	LH	25.0	48.0	20.0	40.0	L	left	0.435	9472.0
n/a	n/a	h6	25.0	1.0	LH	20.0	48.0	20.0	40.0	R	right	0.717899999976	9520.0
n/a	n/a	h6	25.0	2.0	LH	8.0	28.0	20.0	40.0	R	right	0.952899999976	9548.0
n/a	n/a	h6	25.0	3.0	LH	22.0	33.0	20.0	40.0	L	left	0.884	9570.0
n/a	n/a	h6	25.0	4.0	LH	29.0	28.0	20.0	40.0	X	right	0.290199999928	9598.0
n/a	n/a	h6	25.0	5.0	LH	16.0	39.0	20.0	40.0	X	left	0.751399999976	9614.0
n/a	n/a	h6	25.0	6.0	LH	41.0	51.0	20.0	40.0	X	right	0.0921000000239	9665.0
n/a	n/a	h6	25.0	7.0	LH	22.0	35.0	20.0	40.0	X	right	0.0347999999524	9700.0
n/a	n/a	h6	25.0	8.0	LH	30.0	50.0	20.0	40.0	X	right	0.150299999952	9750.0
n/a	n/a	h6	25.0	9.0	LH	14.0	34.0	20.0	40.0	X	right	0.301100000024	9784.0
n/a	n/a	h6	26.0	0.0	LH	69.0	60.0	56.0	60.0	R	right	0.701199999928	9844.0
n/a	n/a	h6	26.0	1.0	LH	55.0	53.0	56.0	60.0	L	left	0.521800000072	9899.0
n/a	n/a	h6	26.0	2.0	LH	57.0	59.0	56.0	60.0	L	left	0.434799999952	9956.0
n/a	n/a	h6	26.0	3.0	LH	62.0	46.0	56.0	60.0	L	left	0.375200000048	10018.0
n/a	n/a	h6	26.0	4.0	LH	50.0	63.0	56.0	60.0	X	left	0.621099999905	10068.0
n/a	n/a	h6	26.0	5.0	LH	65.0	68.0	56.0	60.0	X	right	0.0513000000715	10136.0
n/a	n/a	h6	26.0	6.0	LH	59.0	64.0	56.0	60.0	X	right	0.4845	10200.0
n/a	n/a	h6	26.0	7.0	LH	46.0	52.0	56.0	60.0	X	right	0.1175	10252.0
n/a	n/a	h6	26.0	8.0	LH	68.0	58.0	56.0	60.0	X	right	0.117700000048	10310.0
n/a	n/a	h6	26.0	9.0	LH	62.0	62.0	56.0	60.0	X	right	0.534100000024	10372.0
n/a	n/a	h1	27.0	0.0	HL	57.0	35.0	60.0	40.0	L	left	0.399699999929	10429.0
n/a	n/a	h1	27.0	1.0	HL	63.0	50.0	60.0	40.0	R	right	0.343099999905	10479.0
n/a	n/a	h1	27.0	2.0	HL	57.0	53.0	60.0	40.0	L	left	0.768200000048	10536.0
n/a	n/a	h1	27.0	3.0	HL	54.0	48.0	60.0	40.0	R	right	1.20179999995	10584.0
n/a	n/a	h1	27.0	4.0	HL	62.0	36.0	60.0	40.0	X	left	1.4115	10646.0
n/a	n/a	h6	28.0	0.0	HL	43.0	26.0	40.0	28.0	R	right	0.185299999952	10672.0
n/a	n/a	h6	28.0	1.0	HL	31.0	21.0	40.0	28.0	R	right	0.359600000024	10693.0
n/a	n/a	h6	28.0	2.0	HL	36.0	25.0	40.0	28.0	R	right	0.275	10718.0
n/a	n/a	h6	28.0	3.0	HL	40.0	23.0	40.0	28.0	L	left	0.534	10758.0
n/a	n/a	h6	28.0	4.0	HL	40.0	18.0	40.0	28.0	X	left	1.01889999998	10798.0
n/a	n/a	h6	28.0	5.0	HL	42.0	29.0	40.0	28.0	X	left	0.0653999999761	10840.0
n/a	n/a	h6	28.0	6.0	HL	38.0	28.0	40.0	28.0	X	left	0.0877000000477	10878.0
n/a	n/a	h6	28.0	7.0	HL	43.0	28.0	40.0	28.0	X	left	0.289399999976	10921.0
n/a	n/a	h6	28.0	8.0	HL	43.0	29.0	40.0	28.0	X	left	0.419600000024	10964.0
n/a	n/a	h6	28.0	9.0	HL	45.0	35.0	40.0	28.0	X	left	0.134400000095	11009.0
n/a	n/a	h6	29.0	0.0	LH	22.0	58.0	40.0	52.0	L	left	1.72470000005	11031.0
n/a	n/a	h6	29.0	1.0	LH	32.0	51.0	40.0	52.0	R	right	0.416899999976	11082.0
n/a	n/a	h6	29.0	2.0	LH	62.0	53.0	40.0	52.0	L	left	0.8495	11144.0
n/a	n/a	h6	29.0	3.0	LH	52.0	54.0	40.0	52.0	R	right	0.951800000072	11198.0
n/a	n/a	h6	29.0	4.0	LH	37.0	56.0	40.0	52.0	X	left	1.00929999995	11235.0
n/a	n/a	h6	29.0	5.0	LH	45.0	43.0	40.0	52.0	X	right	1.16980000007	11278.0
n/a	n/a	h6	29.0	6.0	LH	55.0	51.0	40.0	52.0	X	right	0.268100000024	11329.0
n/a	n/a	h6	29.0	7.0	LH	45.0	42.0	40.0	52.0	X	right	0.382599999905	11371.0
n/a	n/a	h6	29.0	8.0	LH	49.0	39.0	40.0	52.0	X	right	0.0845	11410.0
n/a	n/a	h6	29.0	9.0	LH	34.0	68.0	40.0	52.0	X	right	0.167200000048	11478.0
n/a	n/a	h1	30.0	0.0	LH	43.0	75.0	40.0	70.0	R	right	0.468099999905	11553.0
n/a	n/a	h1	30.0	1.0	LH	30.0	80.0	40.0	70.0	R	right	0.642900000095	11633.0
n/a	n/a	h1	30.0	2.0	LH	40.0	70.0	40.0	70.0	R	right	0.584399999976	11703.0
n/a	n/a	h1	30.0	3.0	LH	22.0	65.0	40.0	70.0	L	left	0.676	11725.0
n/a	n/a	h1	30.0	4.0	LH	40.0	78.0	40.0	70.0	X	right	0.150899999976	11803.0
n/a	n/a	h1	31.0	0.0	HL	60.0	66.0	68.0	60.0	R	right	0.602200000048	11869.0
n/a	n/a	h1	31.0	1.0	HL	62.0	54.0	68.0	60.0	L	left	0.234899999976	11931.0
n/a	n/a	h1	31.0	2.0	HL	76.0	51.0	68.0	60.0	L	left	0.617800000071	12007.0
n/a	n/a	h1	31.0	3.0	HL	57.0	60.0	68.0	60.0	R	right	0.501199999928	12067.0
n/a	n/a	h1	31.0	4.0	HL	64.0	44.0	68.0	60.0	X	left	0.718100000024	12131.0
n/a	n/a	h1	32.0	0.0	HL	30.0	7.0	40.0	10.0	R	right	0.318600000024	12138.0
n/a	n/a	h1	32.0	1.0	HL	39.0	11.0	40.0	10.0	L	left	0.2525	12177.0
n/a	n/a	h1	32.0	2.0	HL	45.0	1.0	40.0	10.0	R	right	0.2	12178.0
n/a	n/a	h1	32.0	3.0	HL	46.0	17.0	40.0	10.0	L	left	0.167700000048	12224.0
n/a	n/a	h1	32.0	4.0	HL	34.0	9.0	40.0	10.0	X	right	0.216899999976	12233.0
n/a	n/a	h6	33.0	0.0	HL	49.0	41.0	60.0	40.0	L	left	0.301599999905	12282.0
n/a	n/a	h6	33.0	1.0	HL	68.0	43.0	60.0	40.0	R	right	0.953299999952	12325.0
n/a	n/a	h6	33.0	2.0	HL	67.0	40.0	60.0	40.0	L	left	0.735200000048	12392.0
n/a	n/a	h6	33.0	3.0	HL	55.0	36.0	60.0	40.0	R	right	0.268299999952	12428.0
n/a	n/a	h6	33.0	4.0	HL	59.0	49.0	60.0	40.0	X	left	0.101	12487.0
n/a	n/a	h6	33.0	5.0	HL	60.0	28.0	60.0	40.0	X	left	0.792299999952	12547.0
n/a	n/a	h6	33.0	6.0	HL	50.0	48.0	60.0	40.0	X	left	0.051	12597.0
n/a	n/a	h6	33.0	7.0	HL	64.0	50.0	60.0	40.0	X	right	0.335200000048	12647.0
n/a	n/a	h6	33.0	8.0	HL	57.0	31.0	60.0	40.0	X	left	0.0851000000239	12704.0
n/a	n/a	h6	33.0	9.0	HL	54.0	45.0	60.0	40.0	X	right	0.4845	12749.0
n/a	n/a	h6	34.0	0.0	LH	62.0	77.0	60.0	80.0	L	left	0.554100000024	12811.0
n/a	n/a	h6	34.0	1.0	LH	60.0	67.0	60.0	80.0	L	left	0.357399999976	12871.0
n/a	n/a	h6	34.0	2.0	LH	58.0	68.0	60.0	80.0	L	left	0.452200000048	12929.0
n/a	n/a	h6	34.0	3.0	LH	57.0	78.0	60.0	80.0	R	right	0.343799999952	13007.0
n/a	n/a	h6	34.0	4.0	LH	66.0	90.0	60.0	80.0	X	right	2.069	13097.0
n/a	n/a	h6	34.0	5.0	LH	81.0	75.0	60.0	80.0	X	right	0.232100000024	13172.0
n/a	n/a	h6	34.0	6.0	LH	67.0	84.0	60.0	80.0	X	right	0.1185	13256.0
n/a	n/a	h6	34.0	7.0	LH	53.0	68.0	60.0	80.0	X	right	0.220700000048	13324.0
n/a	n/a	h6	34.0	8.0	LH	72.0	88.0	60.0	80.0	X	right	0.4185	13412.0
n/a	n/a	h6	34.0	9.0	LH	58.0	63.0	60.0	80.0	X	right	0.218	13475.0
n/a	n/a	h6	35.0	0.0	LH	27.0	48.0	30.0	60.0	R	right	1.65270000005	13523.0
n/a	n/a	h6	35.0	1.0	LH	40.0	61.0	30.0	60.0	R	right	0.319200000048	13584.0
n/a	n/a	h6	35.0	2.0	LH	20.0	58.0	30.0	60.0	L	left	1.135	13604.0
n/a	n/a	h6	35.0	3.0	LH	38.0	65.0	30.0	60.0	L	left	0.371600000024	13642.0
n/a	n/a	h6	35.0	4.0	LH	30.0	62.0	30.0	60.0	X	right	1.438	13704.0
n/a	n/a	h6	35.0	5.0	LH	25.0	58.0	30.0	60.0	X	right	0.461	13762.0
n/a	n/a	h6	35.0	6.0	LH	32.0	69.0	30.0	60.0	X	left	0.3695	13794.0
n/a	n/a	h6	35.0	7.0	LH	38.0	65.0	30.0	60.0	X	right	0.331700000048	13859.0
n/a	n/a	h6	35.0	8.0	LH	40.0	80.0	30.0	60.0	X	right	0.250299999952	13939.0
n/a	n/a	h6	35.0	9.0	LH	18.0	68.0	30.0	60.0	X	right	0.183799999952	14007.0
n/a	n/a	h1	36.0	0.0	HL	70.0	37.0	60.0	40.0	R	right	0.652100000024	14044.0
n/a	n/a	h1	36.0	1.0	HL	68.0	36.0	60.0	40.0	R	right	0.719399999976	14080.0
n/a	n/a	h1	36.0	2.0	HL	46.0	26.0	60.0	40.0	R	right	0.217799999952	14106.0
n/a	n/a	h1	36.0	3.0	HL	54.0	32.0	60.0	40.0	L	left	0.934299999952	14160.0
n/a	n/a	h1	36.0	4.0	HL	54.0	46.0	60.0	40.0	X	right	0.794899999976	14206.0
n/a	n/a	h1	37.0	0.0	LH	51.0	75.0	48.0	60.0	R	right	0.518299999952	14281.0
n/a	n/a	h1	37.0	1.0	LH	58.0	57.0	48.0	60.0	R	right	1.23910000002	14338.0
n/a	n/a	h1	37.0	2.0	LH	46.0	58.0	48.0	60.0	L	left	0.502100000024	14384.0
n/a	n/a	h1	37.0	3.0	LH	40.0	48.0	48.0	60.0	R	right	0.274399999976	14432.0
n/a	n/a	h1	37.0	4.0	LH	42.0	54.0	48.0	60.0	X	right	0.900399999976	14486.0
n/a	n/a	h6	38.0	0.0	HL	77.0	45.0	70.0	40.0	L	left	0.284700000048	14563.0
n/a	n/a	h6	38.0	1.0	HL	68.0	29.0	70.0	40.0	L	left	0.4835	14631.0
n/a	n/a	h6	38.0	2.0	HL	71.0	27.0	70.0	40.0	L	left	0.218799999952	14702.0
n/a	n/a	h6	38.0	3.0	HL	82.0	35.0	70.0	40.0	R	right	0.615899999976	14737.0
n/a	n/a	h6	38.0	4.0	HL	64.0	43.0	70.0	40.0	X	left	0.954799999952	14801.0
n/a	n/a	h6	38.0	5.0	HL	56.0	43.0	70.0	40.0	X	left	0.218200000048	14857.0
n/a	n/a	h6	38.0	6.0	HL	73.0	47.0	70.0	40.0	X	right	0.3655	14904.0
n/a	n/a	h6	38.0	7.0	HL	80.0	40.0	70.0	40.0	X	left	0.0695000000001	14984.0
n/a	n/a	h6	38.0	8.0	HL	71.0	44.0	70.0	40.0	X	left	0.0754999999999	15055.0
n/a	n/a	h6	38.0	9.0	HL	83.0	48.0	70.0	40.0	X	left	0.0981999999285	15138.0
n/a	n/a	h1	39.0	0.0	HL	39.0	32.0	44.0	40.0	L	left	0.768399999976	15177.0
n/a	n/a	h1	39.0	1.0	HL	36.0	52.0	44.0	40.0	L	left	0.818699999929	15213.0
n/a	n/a	h1	39.0	2.0	HL	39.0	47.0	44.0	40.0	L	left	0.474100000024	15252.0
n/a	n/a	h1	39.0	3.0	HL	49.0	32.0	44.0	40.0	R	right	0.721600000024	15284.0
n/a	n/a	h1	39.0	4.0	HL	55.0	46.0	44.0	40.0	X	left	1.06910000002	15339.0
n/a	n/a	h6	40.0	0.0	HL	36.0	38.0	40.0	28.0	L	left	0.4605	15375.0
n/a	n/a	h6	40.0	1.0	HL	37.0	40.0	40.0	28.0	L	left	0.433599999905	15412.0
n/a	n/a	h6	40.0	2.0	HL	33.0	23.0	40.0	28.0	R	right	0.568100000024	15435.0
n/a	n/a	h6	40.0	3.0	HL	44.0	27.0	40.0	28.0	R	right	0.352	15462.0
n/a	n/a	h6	40.0	4.0	HL	22.0	36.0	40.0	28.0	X	left	1.19120000005	15484.0
n/a	n/a	h6	40.0	5.0	HL	47.0	30.0	40.0	28.0	X	right	0.0513000000716	15514.0
n/a	n/a	h6	40.0	6.0	HL	31.0	16.0	40.0	28.0	X	right	0.309800000072	15530.0
n/a	n/a	h6	40.0	7.0	HL	47.0	34.0	40.0	28.0	X	left	0.401700000048	15577.0
n/a	n/a	h6	40.0	8.0	HL	39.0	20.0	40.0	28.0	X	left	0.301300000071	15616.0
n/a	n/a	h6	40.0	9.0	HL	37.0	36.0	40.0	28.0	X	left	0.117899999976	15653.0
n/a	n/a	h1	41.0	0.0	LH	65.0	58.0	52.0	60.0	L	left	0.518299999952	15718.0
n/a	n/a	h1	41.0	1.0	LH	49.0	64.0	52.0	60.0	L	left	0.4515	15767.0
n/a	n/a	h1	41.0	2.0	LH	52.0	73.0	52.0	60.0	R	right	0.250300000072	15840.0
n/a	n/a	h1	41.0	3.0	LH	52.0	64.0	52.0	60.0	R	right	0.359400000095	15904.0
n/a	n/a	h1	41.0	4.0	LH	52.0	62.0	52.0	60.0	X	left	1.202	15956.0
n/a	n/a	h1	42.0	0.0	LH	22.0	75.0	40.0	70.0	R	right	0.117900000095	16031.0
n/a	n/a	h1	42.0	1.0	LH	30.0	65.0	40.0	70.0	R	right	0.0673000000714	16096.0
n/a	n/a	h1	42.0	2.0	LH	40.0	70.0	40.0	70.0	R	right	0.251199999929	16166.0
n/a	n/a	h1	42.0	3.0	LH	43.0	80.0	40.0	70.0	L	left	0.286299999952	16209.0
n/a	n/a	h1	42.0	4.0	LH	44.0	86.0	40.0	70.0	X	right	0.7875	16295.0
n/a	n/a	h1	43.0	0.0	LH	32.0	50.0	36.0	40.0	L	left	2.11010000002	16327.0
n/a	n/a	h1	43.0	1.0	LH	39.0	44.0	36.0	40.0	R	right	0.5765	16371.0
n/a	n/a	h1	43.0	2.0	LH	27.0	48.0	36.0	40.0	L	left	0.668099999905	16398.0
n/a	n/a	h1	43.0	3.0	LH	44.0	31.0	36.0	40.0	L	left	0.226600000024	16442.0
n/a	n/a	h1	43.0	4.0	LH	42.0	45.0	36.0	40.0	X	right	0.2705	16487.0
n/a	n/a	h1	44.0	0.0	HL	58.0	57.0	64.0	60.0	L	left	0.451800000072	16545.0
n/a	n/a	h1	44.0	1.0	HL	68.0	62.0	64.0	60.0	R	right	0.535799999952	16607.0
n/a	n/a	h1	44.0	2.0	HL	61.0	75.0	64.0	60.0	L	left	1.086	16668.0
n/a	n/a	h1	44.0	3.0	HL	44.0	57.0	64.0	60.0	R	right	1.285	16725.0
n/a	n/a	h1	44.0	4.0	HL	65.0	64.0	64.0	60.0	X	left	0.487700000048	16790.0
n/a	n/a	h1	45.0	0.0	HL	60.0	55.0	72.0	60.0	L	left	0.537300000071	16850.0
n/a	n/a	h1	45.0	1.0	HL	69.0	48.0	72.0	60.0	R	right	1.86089999998	16898.0
n/a	n/a	h1	45.0	2.0	HL	62.0	75.0	72.0	60.0	L	left	0.918700000048	16960.0
n/a	n/a	h1	45.0	3.0	HL	69.0	50.0	72.0	60.0	R	right	0.484	17010.0
n/a	n/a	h1	45.0	4.0	HL	75.0	58.0	72.0	60.0	X	left	1.25670000005	17085.0
n/a	n/a	h6	46.0	0.0	LH	72.0	71.0	60.0	64.0	L	left	0.354299999952	17157.0
n/a	n/a	h6	46.0	1.0	LH	61.0	87.0	60.0	64.0	L	left	0.602599999905	17218.0
n/a	n/a	h6	46.0	2.0	LH	49.0	70.0	60.0	64.0	R	right	0.267899999976	17288.0
n/a	n/a	h6	46.0	3.0	LH	61.0	65.0	60.0	64.0	R	right	0.5065	17353.0
n/a	n/a	h6	46.0	4.0	LH	70.0	72.0	60.0	64.0	X	left	0.503300000072	17423.0
n/a	n/a	h6	46.0	5.0	LH	69.0	65.0	60.0	64.0	X	left	0.385700000048	17492.0
n/a	n/a	h6	46.0	6.0	LH	60.0	52.0	60.0	64.0	X	left	0.249700000048	17552.0
n/a	n/a	h6	46.0	7.0	LH	63.0	61.0	60.0	64.0	X	left	0.284399999976	17615.0
n/a	n/a	h6	46.0	8.0	LH	58.0	76.0	60.0	64.0	X	left	0.0242000000477	17673.0
n/a	n/a	h6	46.0	9.0	LH	54.0	59.0	60.0	64.0	X	left	0.452199999928	17727.0
n/a	n/a	h1	47.0	0.0	HL	67.0	59.0	68.0	60.0	L	left	0.618300000071	17794.0
n/a	n/a	h1	47.0	1.0	HL	54.0	58.0	68.0	60.0	R	right	0.351	17852.0
n/a	n/a	h1	47.0	2.0	HL	57.0	48.0	68.0	60.0	L	left	0.235	17909.0
n/a	n/a	h1	47.0	3.0	HL	65.0	61.0	68.0	60.0	L	left	0.235100000024	17974.0
n/a	n/a	h1	47.0	4.0	HL	70.0	45.0	68.0	60.0	X	left	0.935099999905	18044.0
n/a	n/a	h1	48.0	0.0	HL	67.0	16.0	60.0	30.0	R	right	0.585399999976	18060.0
n/a	n/a	h1	48.0	1.0	HL	67.0	38.0	60.0	30.0	R	right	0.116399999976	18098.0
n/a	n/a	h1	48.0	2.0	HL	83.0	27.0	60.0	30.0	R	right	0.109100000024	18125.0
n/a	n/a	h1	48.0	3.0	HL	55.0	34.0	60.0	30.0	L	left	0.658200000048	18180.0
n/a	n/a	h1	48.0	4.0	HL	70.0	22.0	60.0	30.0	X	right	0.9175	18202.0
n/a	n/a	h6	49.0	0.0	HL	72.0	45.0	70.0	40.0	L	left	0.437799999952	18274.0
n/a	n/a	h6	49.0	1.0	HL	68.0	29.0	70.0	40.0	L	left	0.484900000095	18342.0
n/a	n/a	h6	49.0	2.0	HL	64.0	27.0	70.0	40.0	L	left	0.851900000095	18406.0
n/a	n/a	h6	49.0	3.0	HL	82.0	31.0	70.0	40.0	R	right	0.969100000024	18437.0
n/a	n/a	h6	49.0	4.0	HL	77.0	23.0	70.0	40.0	X	left	0.884700000048	18514.0
n/a	n/a	h6	49.0	5.0	HL	74.0	35.0	70.0	40.0	X	left	0.668199999928	18588.0
n/a	n/a	h6	49.0	6.0	HL	86.0	53.0	70.0	40.0	X	left	0.3005	18674.0
n/a	n/a	h6	49.0	7.0	HL	68.0	32.0	70.0	40.0	X	left	0.151	18742.0
n/a	n/a	h6	49.0	8.0	HL	71.0	27.0	70.0	40.0	X	left	0.108400000095	18813.0
n/a	n/a	h6	49.0	9.0	HL	67.0	43.0	70.0	40.0	X	left	0.251199999929	18880.0
n/a	n/a	h6	50.0	0.0	HL	89.0	65.0	90.0	60.0	L	left	1.938	18969.0
n/a	n/a	h6	50.0	1.0	HL	88.0	57.0	90.0	60.0	L	left	0.522199999928	19057.0
n/a	n/a	h6	50.0	2.0	HL	84.0	72.0	90.0	60.0	R	right	0.834199999928	19129.0
n/a	n/a	h6	50.0	3.0	HL	76.0	67.0	90.0	60.0	R	right	0.251100000024	19196.0
n/a	n/a	h6	50.0	4.0	HL	96.0	66.0	90.0	60.0	X	right	0.167799999952	19262.0
n/a	n/a	h6	50.0	5.0	HL	99.0	61.0	90.0	60.0	X	left	0.326600000024	19361.0
n/a	n/a	h6	50.0	6.0	HL	84.0	67.0	90.0	60.0	X	left	0.210900000095	19445.0
n/a	n/a	h6	50.0	7.0	HL	91.0	70.0	90.0	60.0	X	left	0.117700000048	19536.0
n/a	n/a	h6	50.0	8.0	HL	85.0	51.0	90.0	60.0	X	left	0.000699999928429	19621.0
n/a	n/a	h6	50.0	9.0	HL	83.0	59.0	90.0	60.0	X	left	0.274	19704.0
n/a	n/a	h6	51.0	0.0	HL	60.0	51.0	60.0	52.0	R	right	0.688700000048	19755.0
n/a	n/a	h6	51.0	1.0	HL	55.0	43.0	60.0	52.0	L	left	0.301399999976	19810.0
n/a	n/a	h6	51.0	2.0	HL	59.0	62.0	60.0	52.0	L	left	0.335299999952	19869.0
n/a	n/a	h6	51.0	3.0	HL	53.0	52.0	60.0	52.0	R	right	0.383799999952	19921.0
n/a	n/a	h6	51.0	4.0	HL	52.0	57.0	60.0	52.0	X	left	1.25089999998	19973.0
n/a	n/a	h6	51.0	5.0	HL	78.0	49.0	60.0	52.0	X	right	0.217600000024	20022.0
n/a	n/a	h6	51.0	6.0	HL	44.0	61.0	60.0	52.0	X	left	0.469599999905	20066.0
n/a	n/a	h6	51.0	7.0	HL	65.0	44.0	60.0	52.0	X	left	0.104600000024	20131.0
n/a	n/a	h6	51.0	8.0	HL	60.0	42.0	60.0	52.0	X	left	0.034100000024	20191.0
n/a	n/a	h6	51.0	9.0	HL	59.0	67.0	60.0	52.0	X	left	0.0545	20250.0
n/a	n/a	h6	52.0	0.0	LH	40.0	38.0	40.0	48.0	L	left	0.369199999928	20290.0
n/a	n/a	h6	52.0	1.0	LH	42.0	44.0	40.0	48.0	L	left	0.5005	20332.0
n/a	n/a	h6	52.0	2.0	LH	60.0	47.0	40.0	48.0	R	right	0.319200000048	20379.0
n/a	n/a	h6	52.0	3.0	LH	37.0	52.0	40.0	48.0	R	right	0.185100000024	20431.0
n/a	n/a	h6	52.0	4.0	LH	31.0	59.0	40.0	48.0	X	right	0.401700000048	20490.0
n/a	n/a	h6	52.0	5.0	LH	39.0	40.0	40.0	48.0	X	right	0.534600000024	20530.0
n/a	n/a	h6	52.0	6.0	LH	43.0	44.0	40.0	48.0	X	right	0.134600000024	20574.0
n/a	n/a	h6	52.0	7.0	LH	50.0	47.0	40.0	48.0	X	right	0.0243000000714	20621.0
n/a	n/a	h6	52.0	8.0	LH	55.0	41.0	40.0	48.0	X	left	0.0181000000239	20676.0
n/a	n/a	h6	52.0	9.0	LH	34.0	45.0	40.0	48.0	X	left	0.489300000072	20710.0
n/a	n/a	h6	53.0	0.0	LH	19.0	45.0	30.0	60.0	R	right	0.551699999928	20755.0
n/a	n/a	h6	53.0	1.0	LH	39.0	62.0	30.0	60.0	L	left	1.73610000002	20794.0
n/a	n/a	h6	53.0	2.0	LH	24.0	65.0	30.0	60.0	L	left	1.13560000002	20818.0
n/a	n/a	h6	53.0	3.0	LH	42.0	55.0	30.0	60.0	L	left	0.4185	20860.0
n/a	n/a	h6	53.0	4.0	LH	37.0	72.0	30.0	60.0	X	left	0.151299999952	20897.0
n/a	n/a	h6	53.0	5.0	LH	31.0	61.0	30.0	60.0	X	right	0.249900000095	20958.0
n/a	n/a	h6	53.0	6.0	LH	33.0	50.0	30.0	60.0	X	left	0.434699999929	20991.0
n/a	n/a	h6	53.0	7.0	LH	29.0	88.0	30.0	60.0	X	right	0.239800000071	21079.0
n/a	n/a	h6	53.0	8.0	LH	11.0	62.0	30.0	60.0	X	right	0.239	21141.0
n/a	n/a	h6	53.0	9.0	LH	44.0	70.0	30.0	60.0	X	right	1.00510000002	21211.0
n/a	n/a	h6	54.0	0.0	HL	41.0	38.0	40.0	28.0	L	left	6.99110000002	21252.0
n/a	n/a	h6	54.0	1.0	HL	37.0	27.0	40.0	28.0	L	left	0.618199999928	21289.0
n/a	n/a	h6	54.0	2.0	HL	33.0	23.0	40.0	28.0	R	right	0.426700000048	21312.0
n/a	n/a	h6	54.0	3.0	HL	44.0	40.0	40.0	28.0	R	right	0.258300000071	21352.0
n/a	n/a	h6	54.0	4.0	HL	27.0	30.0	40.0	28.0	X	right	1.1045	21382.0
n/a	n/a	h6	54.0	5.0	HL	36.0	28.0	40.0	28.0	X	right	1.16889999998	21410.0
n/a	n/a	h6	54.0	6.0	HL	45.0	35.0	40.0	28.0	X	right	0.372599999905	21445.0
n/a	n/a	h6	54.0	7.0	HL	44.0	28.0	40.0	28.0	X	right	0.252199999929	21473.0
n/a	n/a	h6	54.0	8.0	HL	42.0	30.0	40.0	28.0	X	right	0.6535	21503.0
n/a	n/a	h6	54.0	9.0	HL	45.0	31.0	40.0	28.0	X	right	0.401100000024	21534.0
n/a	n/a	h1	55.0	0.0	LH	40.0	64.0	40.0	52.0	L	left	0.326	21574.0
n/a	n/a	h1	55.0	1.0	LH	34.0	52.0	40.0	52.0	L	left	0.584899999976	21608.0
n/a	n/a	h1	55.0	2.0	LH	40.0	58.0	40.0	52.0	R	right	0.417200000048	21666.0
n/a	n/a	h1	55.0	3.0	LH	58.0	62.0	40.0	52.0	L	left	0.35	21724.0
n/a	n/a	h1	55.0	4.0	LH	44.0	48.0	40.0	52.0	X	right	0.4515	21772.0
n/a	n/a	h6	56.0	0.0	HL	60.0	56.0	60.0	52.0	R	right	0.401200000048	21828.0
n/a	n/a	h6	56.0	1.0	HL	67.0	49.0	60.0	52.0	L	left	0.342099999905	21895.0
n/a	n/a	h6	56.0	2.0	HL	67.0	51.0	60.0	52.0	R	right	0.234600000024	21946.0
n/a	n/a	h6	56.0	3.0	HL	69.0	59.0	60.0	52.0	R	right	0.735899999976	22005.0
n/a	n/a	h6	56.0	4.0	HL	70.0	78.0	60.0	52.0	X	right	0.368	22083.0
n/a	n/a	h6	56.0	5.0	HL	55.0	45.0	60.0	52.0	X	right	0.372300000071	22128.0
n/a	n/a	h6	56.0	6.0	HL	75.0	51.0	60.0	52.0	X	left	0.685100000024	22203.0
n/a	n/a	h6	56.0	7.0	HL	66.0	67.0	60.0	52.0	X	left	0.443799999952	22269.0
n/a	n/a	h6	56.0	8.0	HL	61.0	45.0	60.0	52.0	X	right	0.384600000024	22314.0
n/a	n/a	h6	56.0	9.0	HL	60.0	63.0	60.0	52.0	X	left	0.167599999904	22374.0
n/a	n/a	h6	57.0	0.0	HL	39.0	36.0	40.0	36.0	R	right	4.42219999993	22410.0
n/a	n/a	h6	57.0	1.0	HL	31.0	38.0	40.0	36.0	R	right	3.27029999995	22448.0
n/a	n/a	h6	57.0	2.0	HL	46.0	27.0	40.0	36.0	L	left	0.252300000072	22494.0
n/a	n/a	h6	57.0	3.0	HL	35.0	50.0	40.0	36.0	L	left	0.267799999952	22529.0
n/a	n/a	h6	57.0	4.0	HL	46.0	20.0	40.0	36.0	X	right	1.05860000002	22549.0
n/a	n/a	h6	57.0	5.0	HL	45.0	22.0	40.0	36.0	X	left	0.284600000024	22594.0
n/a	n/a	h6	57.0	6.0	HL	31.0	42.0	40.0	36.0	X	left	0.367200000048	22625.0
n/a	n/a	h6	57.0	7.0	HL	40.0	31.0	40.0	36.0	X	left	0.283399999976	22665.0
n/a	n/a	h6	57.0	8.0	HL	49.0	43.0	40.0	36.0	X	left	0.565899999976	22714.0
n/a	n/a	h6	57.0	9.0	HL	26.0	21.0	40.0	36.0	X	right	0.567600000024	22735.0
n/a	n/a	h1	58.0	0.0	HL	75.0	57.0	64.0	60.0	L	left	1.00189999998	22810.0
n/a	n/a	h1	58.0	1.0	HL	68.0	75.0	64.0	60.0	R	right	0.505	22885.0
n/a	n/a	h1	58.0	2.0	HL	61.0	62.0	64.0	60.0	L	left	0.606100000024	22946.0
n/a	n/a	h1	58.0	3.0	HL	44.0	57.0	64.0	60.0	R	right	0.335200000048	23003.0
n/a	n/a	h1	58.0	4.0	HL	58.0	52.0	64.0	60.0	X	right	1.03620000005	23055.0
n/a	n/a	h6	59.0	0.0	LH	19.0	65.0	30.0	60.0	R	right	0.851699999929	23120.0
n/a	n/a	h6	59.0	1.0	LH	39.0	62.0	30.0	60.0	L	left	0.605900000095	23159.0
n/a	n/a	h6	59.0	2.0	LH	24.0	45.0	30.0	60.0	L	left	0.318	23183.0
n/a	n/a	h6	59.0	3.0	LH	25.0	55.0	30.0	60.0	L	left	0.268	23208.0
n/a	n/a	h6	59.0	4.0	LH	40.0	55.0	30.0	60.0	X	left	0.701700000048	23248.0
n/a	n/a	h6	59.0	5.0	LH	23.0	71.0	30.0	60.0	X	right	0.234299999952	23319.0
n/a	n/a	h6	59.0	6.0	LH	42.0	65.0	30.0	60.0	X	left	0.251100000024	23361.0
n/a	n/a	h6	59.0	7.0	LH	28.0	55.0	30.0	60.0	X	right	0.000899999976127	23416.0
n/a	n/a	h6	59.0	8.0	LH	17.0	65.0	30.0	60.0	X	right	1.45229999995	23481.0
n/a	n/a	h6	59.0	9.0	LH	30.0	64.0	30.0	60.0	X	right	0.501799999952	23545.0
n/a	n/a	h6	60.0	0.0	LH	69.0	62.0	56.0	60.0	R	right	0.584800000071	23607.0
n/a	n/a	h6	60.0	1.0	LH	54.0	53.0	56.0	60.0	L	left	1.6025	23661.0
n/a	n/a	h6	60.0	2.0	LH	57.0	59.0	56.0	60.0	L	left	0.984899999976	23718.0
n/a	n/a	h6	60.0	3.0	LH	62.0	60.0	56.0	60.0	L	left	0.801799999952	23780.0
n/a	n/a	h6	60.0	4.0	LH	57.0	51.0	56.0	60.0	X	left	0.620600000024	23837.0
n/a	n/a	h6	60.0	5.0	LH	58.0	50.0	56.0	60.0	X	right	0.0654999999999	23887.0
n/a	n/a	h6	60.0	6.0	LH	65.0	48.0	56.0	60.0	X	left	0.934899999976	23952.0
n/a	n/a	h6	60.0	7.0	LH	64.0	68.0	56.0	60.0	X	left	0.5355	24016.0
n/a	n/a	h6	60.0	8.0	LH	55.0	54.0	56.0	60.0	X	left	0.6515	24071.0
n/a	n/a	h6	60.0	9.0	LH	44.0	46.0	56.0	60.0	X	left	0.151100000024	24115.0
n/a	n/a	h1	61.0	0.0	HL	54.0	35.0	60.0	40.0	L	left	1.61910000002	24169.0
n/a	n/a	h1	61.0	1.0	HL	63.0	42.0	60.0	40.0	R	right	0.289799999952	24211.0
n/a	n/a	h1	61.0	2.0	HL	57.0	53.0	60.0	40.0	L	left	0.284600000024	24268.0
n/a	n/a	h1	61.0	3.0	HL	57.0	48.0	60.0	40.0	R	right	0.284799999952	24316.0
n/a	n/a	h1	61.0	4.0	HL	58.0	50.0	60.0	40.0	X	right	1.08460000002	24366.0
n/a	n/a	h6	62.0	0.0	HL	60.0	56.0	60.0	52.0	R	right	2.32789999998	24422.0
n/a	n/a	h6	62.0	1.0	HL	62.0	49.0	60.0	52.0	L	left	0.150100000024	24484.0
n/a	n/a	h6	62.0	2.0	HL	67.0	51.0	60.0	52.0	R	right	0.068	24535.0
n/a	n/a	h6	62.0	3.0	HL	69.0	53.0	60.0	52.0	R	right	0.268	24588.0
n/a	n/a	h6	62.0	4.0	HL	57.0	49.0	60.0	52.0	X	right	1.27070000005	24637.0
n/a	n/a	h6	62.0	5.0	HL	62.0	39.0	60.0	52.0	X	left	0.0843999999761	24699.0
n/a	n/a	h6	62.0	6.0	HL	42.0	47.0	60.0	52.0	X	left	0.401399999976	24741.0
n/a	n/a	h6	62.0	7.0	HL	69.0	36.0	60.0	52.0	X	left	0.105799999952	24810.0
n/a	n/a	h6	62.0	8.0	HL	67.0	45.0	60.0	52.0	X	left	0.0837000000477	24877.0
n/a	n/a	h6	62.0	9.0	HL	58.0	56.0	60.0	52.0	X	left	0.0671999999283	24935.0
n/a	n/a	h6	63.0	0.0	LH	65.0	77.0	60.0	80.0	L	left	0.6375	25000.0
n/a	n/a	h6	63.0	1.0	LH	60.0	78.0	60.0	80.0	L	left	0.4835	25060.0
n/a	n/a	h6	63.0	2.0	LH	58.0	68.0	60.0	80.0	L	left	0.551299999952	25118.0
n/a	n/a	h6	63.0	3.0	LH	57.0	81.0	60.0	80.0	R	right	0.535600000024	25199.0
n/a	n/a	h6	63.0	4.0	LH	64.0	82.0	60.0	80.0	X	left	0.785199999929	25263.0
n/a	n/a	h6	63.0	5.0	LH	53.0	89.0	60.0	80.0	X	right	0.175600000024	25352.0
n/a	n/a	h6	63.0	6.0	LH	58.0	72.0	60.0	80.0	X	left	0.0848000000715	25410.0
n/a	n/a	h6	63.0	7.0	LH	56.0	73.0	60.0	80.0	X	right	0.134899999976	25483.0
n/a	n/a	h6	63.0	8.0	LH	59.0	91.0	60.0	80.0	X	right	0.0585000000001	25574.0
n/a	n/a	h6	63.0	9.0	LH	48.0	67.0	60.0	80.0	X	right	0.0677000000478	25641.0
n/a	n/a	h1	64.0	0.0	LH	25.0	38.0	32.0	40.0	L	left	0.569600000024	25666.0
n/a	n/a	h1	64.0	1.0	LH	44.0	57.0	32.0	40.0	L	left	0.434299999952	25710.0
n/a	n/a	h1	64.0	2.0	LH	29.0	47.0	32.0	40.0	R	right	0.534899999976	25757.0
n/a	n/a	h1	64.0	3.0	LH	36.0	31.0	32.0	40.0	L	left	0.452399999976	25793.0
n/a	n/a	h1	64.0	4.0	LH	14.0	23.0	32.0	40.0	X	right	0.750600000024	25816.0
n/a	n/a	h6	65.0	0.0	LH	53.0	39.0	40.0	48.0	R	right	2.53669999993	25855.0
n/a	n/a	h6	65.0	1.0	LH	50.0	55.0	40.0	48.0	R	right	0.759200000048	25910.0
n/a	n/a	h6	65.0	2.0	LH	44.0	56.0	40.0	48.0	L	left	0.753100000024	25954.0
n/a	n/a	h6	65.0	3.0	LH	49.0	50.0	40.0	48.0	R	right	0.234600000024	26004.0
n/a	n/a	h6	65.0	4.0	LH	37.0	38.0	40.0	48.0	X	right	1.1195999999	26042.0
n/a	n/a	h6	65.0	5.0	LH	46.0	28.0	40.0	48.0	X	left	0.251799999952	26088.0
n/a	n/a	h6	65.0	6.0	LH	44.0	58.0	40.0	48.0	X	left	0.0677000000478	26132.0
n/a	n/a	h6	65.0	7.0	LH	51.0	64.0	40.0	48.0	X	left	0.153	26183.0
n/a	n/a	h6	65.0	8.0	LH	36.0	56.0	40.0	48.0	X	left	0.083899999976	26219.0
n/a	n/a	h6	65.0	9.0	LH	47.0	42.0	40.0	48.0	X	left	0.102200000048	26266.0
n/a	n/a	h6	66.0	0.0	HL	28.0	15.0	40.0	20.0	L	left	5.0239000001	26294.0
n/a	n/a	h6	66.0	1.0	HL	53.0	16.0	40.0	20.0	L	left	0.802800000072	26347.0
n/a	n/a	h6	66.0	2.0	HL	34.0	28.0	40.0	20.0	L	left	0.318100000024	26381.0
n/a	n/a	h6	66.0	3.0	HL	53.0	21.0	40.0	20.0	R	right	0.268299999952	26402.0
n/a	n/a	h6	66.0	4.0	HL	40.0	24.0	40.0	20.0	X	right	0.100900000095	26426.0
n/a	n/a	h6	66.0	5.0	HL	52.0	24.0	40.0	20.0	X	left	0.1835	26478.0
n/a	n/a	h6	66.0	6.0	HL	55.0	16.0	40.0	20.0	X	left	0.474699999929	26533.0
n/a	n/a	h6	66.0	7.0	HL	24.0	24.0	40.0	20.0	X	left	0.284200000048	26557.0
n/a	n/a	h6	66.0	8.0	HL	40.0	23.0	40.0	20.0	X	left	0.0174999999999	26597.0
n/a	n/a	h6	66.0	9.0	HL	45.0	28.0	40.0	20.0	X	left	0.0210000000002	26642.0
n/a	n/a	h6	67.0	0.0	LH	60.0	79.0	60.0	72.0	R	right	0.335199999929	26721.0
n/a	n/a	h6	67.0	1.0	LH	57.0	66.0	60.0	72.0	R	right	0.219100000024	26787.0
n/a	n/a	h6	67.0	2.0	LH	64.0	65.0	60.0	72.0	L	left	0.501399999976	26851.0
n/a	n/a	h6	67.0	3.0	LH	63.0	69.0	60.0	72.0	R	right	0.352100000024	26920.0
n/a	n/a	h6	67.0	4.0	LH	65.0	75.0	60.0	72.0	X	left	0.234700000048	26985.0
n/a	n/a	h6	67.0	5.0	LH	52.0	77.0	60.0	72.0	X	right	0.0505999999048	27062.0
n/a	n/a	h6	67.0	6.0	LH	73.0	86.0	60.0	72.0	X	left	0.934699999928	27135.0
n/a	n/a	h6	67.0	7.0	LH	66.0	80.0	60.0	72.0	X	right	0.3695	27215.0
n/a	n/a	h6	67.0	8.0	LH	57.0	73.0	60.0	72.0	X	right	0.349799999952	27288.0
n/a	n/a	h6	67.0	9.0	LH	60.0	75.0	60.0	72.0	X	right	0.301600000024	27363.0
n/a	n/a	h1	68.0	0.0	LH	45.0	56.0	40.0	60.0	R	right	0.550600000024	27419.0
n/a	n/a	h1	68.0	1.0	LH	29.0	52.0	40.0	60.0	R	right	0.422200000048	27471.0
n/a	n/a	h1	68.0	2.0	LH	47.0	60.0	40.0	60.0	R	right	0.0847000000476	27531.0
n/a	n/a	h1	68.0	3.0	LH	36.0	57.0	40.0	60.0	L	left	0.500700000048	27567.0
n/a	n/a	h1	68.0	4.0	LH	41.0	51.0	40.0	60.0	X	right	0.332199999929	27618.0
n/a	n/a	h6	69.0	0.0	LH	25.0	48.0	20.0	40.0	L	left	0.340899999976	27643.0
n/a	n/a	h6	69.0	1.0	LH	20.0	33.0	20.0	40.0	R	right	0.768600000024	27676.0
n/a	n/a	h6	69.0	2.0	LH	8.0	50.0	20.0	40.0	R	right	0.522900000095	27726.0
n/a	n/a	h6	69.0	3.0	LH	14.0	48.0	20.0	40.0	L	left	0.475899999976	27740.0
n/a	n/a	h6	69.0	4.0	LH	22.0	28.0	20.0	40.0	X	right	0.226799999952	27768.0
n/a	n/a	h6	69.0	5.0	LH	24.0	35.0	20.0	40.0	X	left	0.136200000048	27792.0
n/a	n/a	h6	69.0	6.0	LH	22.0	40.0	20.0	40.0	X	right	0.334300000072	27832.0
n/a	n/a	h6	69.0	7.0	LH	27.0	49.0	20.0	40.0	X	right	0.417199999928	27881.0
n/a	n/a	h6	69.0	8.0	LH	31.0	37.0	20.0	40.0	X	right	0.0392000000477	27918.0
n/a	n/a	h6	69.0	9.0	LH	26.0	57.0	20.0	40.0	X	right	0.0176999999285	27975.0
n/a	n/a	h1	70.0	0.0	LH	32.0	76.0	40.0	60.0	L	left	0.535	28007.0
n/a	n/a	h1	70.0	1.0	LH	37.0	65.0	40.0	60.0	R	right	0.0592999999521	28072.0
n/a	n/a	h1	70.0	2.0	LH	37.0	68.0	40.0	60.0	L	left	0.450799999952	28109.0
n/a	n/a	h1	70.0	3.0	LH	46.0	55.0	40.0	60.0	R	right	0.886800000071	28164.0
n/a	n/a	h1	70.0	4.0	LH	31.0	69.0	40.0	60.0	X	right	0.351399999976	28233.0
n/a	n/a	h1	71.0	0.0	LH	48.0	67.0	40.0	70.0	R	right	0.168299999952	28300.0
n/a	n/a	h1	71.0	1.0	LH	31.0	62.0	40.0	70.0	L	left	0.539199999928	28331.0
n/a	n/a	h1	71.0	2.0	LH	39.0	65.0	40.0	70.0	R	right	0.237299999952	28396.0
n/a	n/a	h1	71.0	3.0	LH	50.0	62.0	40.0	70.0	L	left	0.402399999976	28446.0
n/a	n/a	h1	71.0	4.0	LH	47.0	64.0	40.0	70.0	X	left	0.756600000024	28493.0
n/a	n/a	h1	72.0	0.0	LH	32.0	50.0	36.0	40.0	L	left	0.319200000048	28525.0
n/a	n/a	h1	72.0	1.0	LH	39.0	48.0	36.0	40.0	R	right	0.335300000072	28573.0
n/a	n/a	h1	72.0	2.0	LH	32.0	44.0	36.0	40.0	L	left	0.201100000024	28605.0
n/a	n/a	h1	72.0	3.0	LH	44.0	31.0	36.0	40.0	L	left	0.406399999976	28649.0
n/a	n/a	h1	72.0	4.0	LH	27.0	33.0	36.0	40.0	X	right	0.348899999976	28682.0
n/a	n/a	h1	73.0	0.0	LH	29.0	30.0	28.0	40.0	R	right	2.82810000002	28712.0
n/a	n/a	h1	73.0	1.0	LH	27.0	39.0	28.0	40.0	L	left	0.518399999976	28739.0
n/a	n/a	h1	73.0	2.0	LH	25.0	54.0	28.0	40.0	R	right	1.1075	28793.0
n/a	n/a	h1	73.0	3.0	LH	31.0	44.0	28.0	40.0	L	left	0.303399999976	28824.0
n/a	n/a	h1	73.0	4.0	LH	26.0	45.0	28.0	40.0	X	right	0.236	28869.0
n/a	n/a	h1	74.0	0.0	LH	46.0	75.0	48.0	60.0	R	right	0.403399999976	28944.0
n/a	n/a	h1	74.0	1.0	LH	58.0	48.0	48.0	60.0	R	right	0.292399999976	28992.0
n/a	n/a	h1	74.0	2.0	LH	51.0	58.0	48.0	60.0	L	left	0.608799999952	29043.0
n/a	n/a	h1	74.0	3.0	LH	40.0	57.0	48.0	60.0	R	right	0.451899999976	29100.0
n/a	n/a	h1	74.0	4.0	LH	29.0	51.0	48.0	60.0	X	left	0.391100000024	29129.0
n/a	n/a	h1	75.0	0.0	LH	58.0	43.0	56.0	60.0	L	left	0.337899999976	29187.0
n/a	n/a	h1	75.0	1.0	LH	33.0	67.0	56.0	60.0	R	right	0.301399999976	29254.0
n/a	n/a	h1	75.0	2.0	LH	55.0	59.0	56.0	60.0	L	left	0.251300000072	29309.0
n/a	n/a	h1	75.0	3.0	LH	42.0	64.0	56.0	60.0	R	right	0.184699999928	29373.0
n/a	n/a	h1	75.0	4.0	LH	66.0	59.0	56.0	60.0	X	right	0.183100000024	29432.0
n/a	n/a	h6	76.0	0.0	HL	55.0	61.0	60.0	52.0	R	right	0.268	29493.0
n/a	n/a	h6	76.0	1.0	HL	60.0	43.0	60.0	52.0	L	left	0.384700000048	29553.0
n/a	n/a	h6	76.0	2.0	HL	65.0	62.0	60.0	52.0	L	left	0.671300000072	29618.0
n/a	n/a	h6	76.0	3.0	HL	53.0	41.0	60.0	52.0	R	right	0.188600000024	29659.0
n/a	n/a	h6	76.0	4.0	HL	61.0	57.0	60.0	52.0	X	right	0.525199999928	29716.0
n/a	n/a	h6	76.0	5.0	HL	59.0	67.0	60.0	52.0	X	right	0.468100000024	29783.0
n/a	n/a	h6	76.0	6.0	HL	42.0	45.0	60.0	52.0	X	right	0.4525	29828.0
n/a	n/a	h6	76.0	7.0	HL	60.0	45.0	60.0	52.0	X	right	0.268399999976	29873.0
n/a	n/a	h6	76.0	8.0	HL	64.0	53.0	60.0	52.0	X	left	1.9195	29937.0
n/a	n/a	h6	76.0	9.0	HL	56.0	38.0	60.0	52.0	X	left	1.01769999993	29993.0
n/a	n/a	h1	77.0	0.0	LH	52.0	73.0	52.0	60.0	L	left	0.5855	30045.0
n/a	n/a	h1	77.0	1.0	LH	49.0	64.0	52.0	60.0	L	left	0.325800000071	30094.0
n/a	n/a	h1	77.0	2.0	LH	65.0	58.0	52.0	60.0	R	right	0.416100000024	30152.0
n/a	n/a	h1	77.0	3.0	LH	52.0	61.0	52.0	60.0	R	right	0.871600000024	30213.0
n/a	n/a	h1	77.0	4.0	LH	57.0	64.0	52.0	60.0	X	right	2.00319999993	30277.0
n/a	n/a	h6	78.0	0.0	LH	64.0	66.0	60.0	72.0	R	right	0.372600000024	30343.0
n/a	n/a	h6	78.0	1.0	LH	57.0	79.0	60.0	72.0	R	right	0.601799999952	30422.0
n/a	n/a	h6	78.0	2.0	LH	60.0	65.0	60.0	72.0	L	left	0.416600000024	30482.0
n/a	n/a	h6	78.0	3.0	LH	63.0	63.0	60.0	72.0	R	right	0.334299999952	30545.0
n/a	n/a	h6	78.0	4.0	LH	67.0	90.0	60.0	72.0	X	right	0.618099999905	30635.0
n/a	n/a	h6	78.0	5.0	LH	56.0	69.0	60.0	72.0	X	right	0.368100000024	30704.0
n/a	n/a	h6	78.0	6.0	LH	53.0	64.0	60.0	72.0	X	right	1.51880000007	30768.0
n/a	n/a	h6	78.0	7.0	LH	65.0	72.0	60.0	72.0	X	right	0.0342999999523	30840.0
n/a	n/a	h6	78.0	8.0	LH	54.0	66.0	60.0	72.0	X	left	0.121899999976	30894.0
n/a	n/a	h6	78.0	9.0	LH	63.0	62.0	60.0	72.0	X	right	0.0177000000476	30956.0
n/a	n/a	h1	79.0	0.0	LH	36.0	57.0	40.0	60.0	R	right	1.19210000002	31013.0
n/a	n/a	h1	79.0	1.0	LH	29.0	52.0	40.0	60.0	R	right	1.33520000005	31065.0
n/a	n/a	h1	79.0	2.0	LH	47.0	60.0	40.0	60.0	R	right	1.572	31125.0
n/a	n/a	h1	79.0	3.0	LH	45.0	56.0	40.0	60.0	L	left	0.769	31170.0
n/a	n/a	h1	79.0	4.0	LH	31.0	50.0	40.0	60.0	X	left	3.09189999998	31201.0
