onset	duration	trial_type	trial_number	bandit_num	mean_type	left_reward	right_reward	left_mean	right_mean	force_pos	response	response_time	points
n/a	n/a	h1	0.0	0.0	LH	40.0	64.0	40.0	52.0	L	left	3.19130000001	40.0
n/a	n/a	h1	0.0	1.0	LH	44.0	52.0	40.0	52.0	L	left	0.202400000036	84.0
n/a	n/a	h1	0.0	2.0	LH	40.0	48.0	40.0	52.0	R	right	0.118800000012	132.0
n/a	n/a	h1	0.0	3.0	LH	58.0	62.0	40.0	52.0	L	left	0.159	190.0
n/a	n/a	h1	0.0	4.0	LH	52.0	40.0	40.0	52.0	X	left	0.673099999964	242.0
n/a	n/a	h6	1.0	0.0	LH	58.0	58.0	60.0	64.0	R	right	0.156	300.0
n/a	n/a	h6	1.0	1.0	LH	59.0	60.0	60.0	64.0	L	left	0.134300000012	359.0
n/a	n/a	h6	1.0	2.0	LH	61.0	64.0	60.0	64.0	R	right	0.0932000000477	423.0
n/a	n/a	h6	1.0	3.0	LH	55.0	56.0	60.0	64.0	R	right	0.338199999988	479.0
n/a	n/a	h6	1.0	4.0	LH	69.0	69.0	60.0	64.0	X	right	0.0543999999762	548.0
n/a	n/a	h6	1.0	5.0	LH	58.0	77.0	60.0	64.0	X	left	0.0658000000119	606.0
n/a	n/a	h6	1.0	6.0	LH	51.0	47.0	60.0	64.0	X	right	0.00630000001192	653.0
n/a	n/a	h6	1.0	7.0	LH	52.0	56.0	60.0	64.0	X	right	0.051	709.0
n/a	n/a	h6	1.0	8.0	LH	62.0	63.0	60.0	64.0	X	left	0.026	771.0
n/a	n/a	h6	1.0	9.0	LH	61.0	72.0	60.0	64.0	X	left	1.55510000002	832.0
n/a	n/a	h1	2.0	0.0	LH	48.0	67.0	40.0	70.0	R	right	0.187699999988	899.0
n/a	n/a	h1	2.0	1.0	LH	47.0	62.0	40.0	70.0	L	left	0.123100000024	946.0
n/a	n/a	h1	2.0	2.0	LH	39.0	62.0	40.0	70.0	R	right	0.0341999999881	1008.0
n/a	n/a	h1	2.0	3.0	LH	50.0	65.0	40.0	70.0	L	left	0.105699999988	1058.0
n/a	n/a	h1	2.0	4.0	LH	35.0	67.0	40.0	70.0	X	right	0.167800000012	1125.0
n/a	n/a	h1	3.0	0.0	LH	31.0	44.0	28.0	40.0	R	right	0.145599999964	1169.0
n/a	n/a	h1	3.0	1.0	LH	27.0	39.0	28.0	40.0	L	left	0.234199999988	1196.0
n/a	n/a	h1	3.0	2.0	LH	25.0	54.0	28.0	40.0	R	right	0.0677999999523	1250.0
n/a	n/a	h1	3.0	3.0	LH	29.0	30.0	28.0	40.0	L	left	0.0843999999762	1279.0
n/a	n/a	h1	3.0	4.0	LH	29.0	47.0	28.0	40.0	X	right	0.451199999988	1326.0
n/a	n/a	h1	4.0	0.0	HL	67.0	22.0	60.0	30.0	R	right	0.147200000048	1348.0
n/a	n/a	h1	4.0	1.0	HL	55.0	38.0	60.0	30.0	R	right	0.118	1386.0
n/a	n/a	h1	4.0	2.0	HL	83.0	34.0	60.0	30.0	R	right	0.218599999964	1420.0
n/a	n/a	h1	4.0	3.0	HL	67.0	27.0	60.0	30.0	L	left	0.451600000024	1487.0
n/a	n/a	h1	4.0	4.0	HL	64.0	30.0	60.0	30.0	X	left	0.167399999976	1551.0
n/a	n/a	h1	5.0	0.0	HL	75.0	55.0	72.0	60.0	L	left	0.267800000012	1626.0
n/a	n/a	h1	5.0	1.0	HL	69.0	58.0	72.0	60.0	R	right	0.234399999976	1684.0
n/a	n/a	h1	5.0	2.0	HL	62.0	75.0	72.0	60.0	L	left	0.2185	1746.0
n/a	n/a	h1	5.0	3.0	HL	69.0	50.0	72.0	60.0	R	right	0.161800000012	1796.0
n/a	n/a	h1	5.0	4.0	HL	81.0	50.0	72.0	60.0	X	left	0.0351999999881	1877.0
n/a	n/a	h1	6.0	0.0	HL	60.0	66.0	68.0	60.0	R	right	0.231400000036	1943.0
n/a	n/a	h1	6.0	1.0	HL	76.0	54.0	68.0	60.0	L	left	0.135100000024	2019.0
n/a	n/a	h1	6.0	2.0	HL	62.0	51.0	68.0	60.0	L	left	0.339300000012	2081.0
n/a	n/a	h1	6.0	3.0	HL	57.0	44.0	68.0	60.0	R	right	0.118300000012	2125.0
n/a	n/a	h1	6.0	4.0	HL	63.0	47.0	68.0	60.0	X	left	0.1525	2188.0
n/a	n/a	h1	7.0	0.0	HL	39.0	32.0	44.0	40.0	L	left	0.1285	2227.0
n/a	n/a	h1	7.0	1.0	HL	49.0	52.0	44.0	40.0	L	left	0.251699999988	2276.0
n/a	n/a	h1	7.0	2.0	HL	39.0	32.0	44.0	40.0	L	left	0.217899999976	2315.0
n/a	n/a	h1	7.0	3.0	HL	36.0	47.0	44.0	40.0	R	right	0.117399999976	2362.0
n/a	n/a	h1	7.0	4.0	HL	39.0	37.0	44.0	40.0	X	right	0.851800000012	2399.0
n/a	n/a	h6	8.0	0.0	HL	96.0	65.0	90.0	60.0	L	left	0.201399999976	2495.0
n/a	n/a	h6	8.0	1.0	HL	88.0	57.0	90.0	60.0	L	left	0.134599999964	2583.0
n/a	n/a	h6	8.0	2.0	HL	84.0	59.0	90.0	60.0	R	right	0.1175	2642.0
n/a	n/a	h6	8.0	3.0	HL	76.0	67.0	90.0	60.0	R	right	0.117700000048	2709.0
n/a	n/a	h6	8.0	4.0	HL	99.0	71.0	90.0	60.0	X	left	0.0171999999881	2808.0
n/a	n/a	h6	8.0	5.0	HL	92.0	41.0	90.0	60.0	X	left	0.0177999999523	2900.0
n/a	n/a	h6	8.0	6.0	HL	81.0	65.0	90.0	60.0	X	left	0.00119999998807	2981.0
n/a	n/a	h6	8.0	7.0	HL	95.0	52.0	90.0	60.0	X	left	0.0186000000238	3076.0
n/a	n/a	h6	8.0	8.0	HL	90.0	70.0	90.0	60.0	X	left	0.417399999976	3166.0
n/a	n/a	h6	8.0	9.0	HL	99.0	56.0	90.0	60.0	X	left	0.1015	3265.0
n/a	n/a	h6	9.0	0.0	HL	39.0	36.0	40.0	36.0	R	right	0.185099999964	3301.0
n/a	n/a	h6	9.0	1.0	HL	31.0	21.0	40.0	36.0	R	right	0.1015	3322.0
n/a	n/a	h6	9.0	2.0	HL	46.0	27.0	40.0	36.0	L	left	0.100900000036	3368.0
n/a	n/a	h6	9.0	3.0	HL	26.0	50.0	40.0	36.0	L	left	0.0677999999523	3394.0
n/a	n/a	h6	9.0	4.0	HL	41.0	28.0	40.0	36.0	X	right	0.0343000000119	3422.0
n/a	n/a	h6	9.0	5.0	HL	35.0	37.0	40.0	36.0	X	left	0.0173000000119	3457.0
n/a	n/a	h6	9.0	6.0	HL	36.0	38.0	40.0	36.0	X	right	0.234800000012	3495.0
n/a	n/a	h6	9.0	7.0	HL	46.0	22.0	40.0	36.0	X	left	0.0177999999523	3541.0
n/a	n/a	h6	9.0	8.0	HL	35.0	32.0	40.0	36.0	X	left	0.251100000024	3576.0
n/a	n/a	h6	9.0	9.0	HL	37.0	30.0	40.0	36.0	X	left	0.0508000000119	3613.0
n/a	n/a	h1	10.0	0.0	HL	70.0	46.0	60.0	40.0	R	right	0.2195	3659.0
n/a	n/a	h1	10.0	1.0	HL	54.0	36.0	60.0	40.0	R	right	0.314100000024	3695.0
n/a	n/a	h1	10.0	2.0	HL	46.0	26.0	60.0	40.0	R	right	0.100600000024	3721.0
n/a	n/a	h1	10.0	3.0	HL	68.0	32.0	60.0	40.0	L	left	0.1515	3789.0
n/a	n/a	h1	10.0	4.0	HL	61.0	46.0	60.0	40.0	X	left	0.218400000036	3850.0
n/a	n/a	h1	11.0	0.0	HL	30.0	11.0	40.0	10.0	R	right	0.217800000012	3861.0
n/a	n/a	h1	11.0	1.0	HL	39.0	7.0	40.0	10.0	L	left	0.217899999976	3900.0
n/a	n/a	h1	11.0	2.0	HL	45.0	1.0	40.0	10.0	R	right	0.134399999976	3901.0
n/a	n/a	h1	11.0	3.0	HL	34.0	9.0	40.0	10.0	L	left	0.101099999964	3935.0
n/a	n/a	h1	11.0	4.0	HL	33.0	19.0	40.0	10.0	X	left	0.0848999999762	3968.0
n/a	n/a	h6	12.0	0.0	LH	27.0	80.0	30.0	60.0	R	right	0.1515	4048.0
n/a	n/a	h6	12.0	1.0	LH	40.0	61.0	30.0	60.0	R	right	0.0345999999642	4109.0
n/a	n/a	h6	12.0	2.0	LH	20.0	58.0	30.0	60.0	L	left	0.0508000000119	4129.0
n/a	n/a	h6	12.0	3.0	LH	25.0	65.0	30.0	60.0	L	left	0.0851999999881	4154.0
n/a	n/a	h6	12.0	4.0	LH	34.0	60.0	30.0	60.0	X	right	0.0516999999881	4214.0
n/a	n/a	h6	12.0	5.0	LH	33.0	53.0	30.0	60.0	X	right	0.0258000000119	4267.0
n/a	n/a	h6	12.0	6.0	LH	33.0	73.0	30.0	60.0	X	right	0.0343000000119	4340.0
n/a	n/a	h6	12.0	7.0	LH	18.0	45.0	30.0	60.0	X	right	0.084	4385.0
n/a	n/a	h6	12.0	8.0	LH	37.0	68.0	30.0	60.0	X	right	0.0255	4453.0
n/a	n/a	h6	12.0	9.0	LH	33.0	60.0	30.0	60.0	X	right	0.0198999999761	4513.0
n/a	n/a	h6	13.0	0.0	LH	58.0	58.0	60.0	64.0	R	right	0.159699999988	4571.0
n/a	n/a	h6	13.0	1.0	LH	59.0	60.0	60.0	64.0	L	left	0.1725	4630.0
n/a	n/a	h6	13.0	2.0	LH	61.0	64.0	60.0	64.0	R	right	0.0385	4694.0
n/a	n/a	h6	13.0	3.0	LH	55.0	56.0	60.0	64.0	R	right	0.167600000024	4750.0
n/a	n/a	h6	13.0	4.0	LH	73.0	70.0	60.0	64.0	X	left	0.0508000000119	4823.0
n/a	n/a	h6	13.0	5.0	LH	69.0	59.0	60.0	64.0	X	right	0.0895	4882.0
n/a	n/a	h6	13.0	6.0	LH	58.0	75.0	60.0	64.0	X	left	0.0907000000477	4940.0
n/a	n/a	h6	13.0	7.0	LH	61.0	68.0	60.0	64.0	X	right	0.04	5008.0
n/a	n/a	h6	13.0	8.0	LH	58.0	61.0	60.0	64.0	X	left	0.432300000012	5066.0
n/a	n/a	h6	13.0	9.0	LH	62.0	79.0	60.0	64.0	X	right	0.200800000012	5145.0
n/a	n/a	h6	14.0	0.0	LH	44.0	39.0	40.0	48.0	R	right	0.168800000012	5184.0
n/a	n/a	h6	14.0	1.0	LH	50.0	55.0	40.0	48.0	R	right	0.0174000000358	5239.0
n/a	n/a	h6	14.0	2.0	LH	53.0	56.0	40.0	48.0	L	left	0.658699999988	5292.0
n/a	n/a	h6	14.0	3.0	LH	49.0	58.0	40.0	48.0	R	right	0.384599999964	5350.0
n/a	n/a	h6	14.0	4.0	LH	40.0	44.0	40.0	48.0	X	right	0.0372000000477	5394.0
n/a	n/a	h6	14.0	5.0	LH	43.0	57.0	40.0	48.0	X	left	0.0344000000358	5437.0
n/a	n/a	h6	14.0	6.0	LH	39.0	43.0	40.0	48.0	X	left	0.151600000024	5476.0
n/a	n/a	h6	14.0	7.0	LH	43.0	56.0	40.0	48.0	X	right	0.0503000000119	5532.0
n/a	n/a	h6	14.0	8.0	LH	23.0	56.0	40.0	48.0	X	right	0.0516999999881	5588.0
n/a	n/a	h6	14.0	9.0	LH	42.0	49.0	40.0	48.0	X	right	0.0365	5637.0
n/a	n/a	h1	15.0	0.0	HL	65.0	59.0	68.0	60.0	L	left	0.142800000012	5702.0
n/a	n/a	h1	15.0	1.0	HL	57.0	58.0	68.0	60.0	R	right	0.156	5760.0
n/a	n/a	h1	15.0	2.0	HL	54.0	48.0	68.0	60.0	L	left	0.0841000000238	5814.0
n/a	n/a	h1	15.0	3.0	HL	70.0	61.0	68.0	60.0	L	left	0.221100000024	5884.0
n/a	n/a	h1	15.0	4.0	HL	69.0	51.0	68.0	60.0	X	left	0.525	5953.0
n/a	n/a	h6	16.0	0.0	LH	72.0	71.0	60.0	64.0	L	left	0.158100000024	6025.0
n/a	n/a	h6	16.0	1.0	LH	49.0	87.0	60.0	64.0	L	left	0.252799999952	6074.0
n/a	n/a	h6	16.0	2.0	LH	61.0	70.0	60.0	64.0	R	right	0.425800000012	6144.0
n/a	n/a	h6	16.0	3.0	LH	61.0	76.0	60.0	64.0	R	right	0.140399999976	6220.0
n/a	n/a	h6	16.0	4.0	LH	71.0	66.0	60.0	64.0	X	right	0.184199999988	6286.0
n/a	n/a	h6	16.0	5.0	LH	65.0	59.0	60.0	64.0	X	left	0.0185	6351.0
n/a	n/a	h6	16.0	6.0	LH	65.0	50.0	60.0	64.0	X	right	0.0677000000477	6401.0
n/a	n/a	h6	16.0	7.0	LH	56.0	76.0	60.0	64.0	X	left	0.0203000000119	6457.0
n/a	n/a	h6	16.0	8.0	LH	58.0	59.0	60.0	64.0	X	right	0.384399999976	6516.0
n/a	n/a	h6	16.0	9.0	LH	71.0	64.0	60.0	64.0	X	right	0.3765	6580.0
n/a	n/a	h6	17.0	0.0	LH	55.0	58.0	40.0	52.0	L	left	0.126300000012	6635.0
n/a	n/a	h6	17.0	1.0	LH	32.0	39.0	40.0	52.0	R	right	0.122400000036	6674.0
n/a	n/a	h6	17.0	2.0	LH	52.0	53.0	40.0	52.0	L	left	0.0346999999881	6726.0
n/a	n/a	h6	17.0	3.0	LH	62.0	54.0	40.0	52.0	R	right	0.04	6780.0
n/a	n/a	h6	17.0	4.0	LH	32.0	60.0	40.0	52.0	X	left	0.569600000024	6812.0
n/a	n/a	h6	17.0	5.0	LH	45.0	51.0	40.0	52.0	X	right	0.0908000000119	6863.0
n/a	n/a	h6	17.0	6.0	LH	46.0	54.0	40.0	52.0	X	left	0.316800000012	6909.0
n/a	n/a	h6	17.0	7.0	LH	43.0	58.0	40.0	52.0	X	right	0.0545	6967.0
n/a	n/a	h6	17.0	8.0	LH	47.0	61.0	40.0	52.0	X	right	0.201199999988	7028.0
n/a	n/a	h6	17.0	9.0	LH	48.0	45.0	40.0	52.0	X	right	0.0511999999881	7073.0
n/a	n/a	h6	18.0	0.0	HL	28.0	15.0	40.0	20.0	L	left	0.2345	7101.0
n/a	n/a	h6	18.0	1.0	HL	53.0	16.0	40.0	20.0	L	left	0.284699999988	7154.0
n/a	n/a	h6	18.0	2.0	HL	55.0	28.0	40.0	20.0	L	left	0.250899999976	7209.0
n/a	n/a	h6	18.0	3.0	HL	53.0	28.0	40.0	20.0	R	right	0.0851000000238	7237.0
n/a	n/a	h6	18.0	4.0	HL	53.0	3.0	40.0	20.0	X	left	0.284400000036	7290.0
n/a	n/a	h6	18.0	5.0	HL	40.0	15.0	40.0	20.0	X	right	0.118	7305.0
n/a	n/a	h6	18.0	6.0	HL	45.0	4.0	40.0	20.0	X	left	0.434400000036	7350.0
n/a	n/a	h6	18.0	7.0	HL	41.0	20.0	40.0	20.0	X	left	0.0513000000119	7391.0
n/a	n/a	h6	18.0	8.0	HL	43.0	25.0	40.0	20.0	X	left	0.0505	7434.0
n/a	n/a	h6	18.0	9.0	HL	47.0	26.0	40.0	20.0	X	left	0.052	7481.0
n/a	n/a	h1	19.0	0.0	LH	66.0	43.0	56.0	60.0	L	left	0.186899999976	7547.0
n/a	n/a	h1	19.0	1.0	LH	33.0	67.0	56.0	60.0	R	right	0.134699999988	7614.0
n/a	n/a	h1	19.0	2.0	LH	42.0	59.0	56.0	60.0	L	left	0.0863999999762	7656.0
n/a	n/a	h1	19.0	3.0	LH	55.0	64.0	56.0	60.0	R	right	0.0885	7720.0
n/a	n/a	h1	19.0	4.0	LH	47.0	58.0	56.0	60.0	X	right	0.600100000024	7778.0
n/a	n/a	h1	20.0	0.0	LH	25.0	38.0	32.0	40.0	L	left	0.151399999976	7803.0
n/a	n/a	h1	20.0	1.0	LH	29.0	57.0	32.0	40.0	L	left	0.1265	7832.0
n/a	n/a	h1	20.0	2.0	LH	44.0	23.0	32.0	40.0	R	right	0.0468999999761	7855.0
n/a	n/a	h1	20.0	3.0	LH	36.0	31.0	32.0	40.0	L	left	0.450799999952	7891.0
n/a	n/a	h1	20.0	4.0	LH	39.0	48.0	32.0	40.0	X	left	0.785399999976	7930.0
n/a	n/a	h6	21.0	0.0	HL	43.0	35.0	40.0	28.0	R	right	0.201300000012	7965.0
n/a	n/a	h6	21.0	1.0	HL	31.0	21.0	40.0	28.0	R	right	0.218699999988	7986.0
n/a	n/a	h6	21.0	2.0	HL	40.0	28.0	40.0	28.0	R	right	0.233	8014.0
n/a	n/a	h6	21.0	3.0	HL	36.0	23.0	40.0	28.0	L	left	0.00160000002384	8050.0
n/a	n/a	h6	21.0	4.0	HL	40.0	27.0	40.0	28.0	X	left	0.388699999988	8090.0
n/a	n/a	h6	21.0	5.0	HL	46.0	20.0	40.0	28.0	X	right	0.0674000000358	8110.0
n/a	n/a	h6	21.0	6.0	HL	50.0	21.0	40.0	28.0	X	left	0.2545	8160.0
n/a	n/a	h6	21.0	7.0	HL	41.0	37.0	40.0	28.0	X	left	0.2205	8201.0
n/a	n/a	h6	21.0	8.0	HL	44.0	19.0	40.0	28.0	X	left	0.000900000035784	8245.0
n/a	n/a	h6	21.0	9.0	HL	37.0	25.0	40.0	28.0	X	left	0.0338000000119	8282.0
n/a	n/a	h1	22.0	0.0	LH	32.0	76.0	40.0	60.0	L	left	0.251399999976	8314.0
n/a	n/a	h1	22.0	1.0	LH	37.0	65.0	40.0	60.0	R	right	0.194399999976	8379.0
n/a	n/a	h1	22.0	2.0	LH	46.0	68.0	40.0	60.0	L	left	0.2015	8425.0
n/a	n/a	h1	22.0	3.0	LH	37.0	69.0	40.0	60.0	R	right	0.132200000048	8494.0
n/a	n/a	h1	22.0	4.0	LH	40.0	53.0	40.0	60.0	X	left	0.169599999964	8534.0
n/a	n/a	h6	23.0	0.0	HL	49.0	36.0	60.0	40.0	L	left	0.192299999952	8583.0
n/a	n/a	h6	23.0	1.0	HL	68.0	43.0	60.0	40.0	R	right	0.136600000024	8626.0
n/a	n/a	h6	23.0	2.0	HL	55.0	40.0	60.0	40.0	L	left	0.1345	8681.0
n/a	n/a	h6	23.0	3.0	HL	67.0	41.0	60.0	40.0	R	right	0.100599999964	8722.0
n/a	n/a	h6	23.0	4.0	HL	49.0	34.0	60.0	40.0	X	left	0.927599999964	8771.0
n/a	n/a	h6	23.0	5.0	HL	57.0	35.0	60.0	40.0	X	right	0.106699999988	8806.0
n/a	n/a	h6	23.0	6.0	HL	55.0	50.0	60.0	40.0	X	left	0.120699999988	8861.0
n/a	n/a	h6	23.0	7.0	HL	54.0	28.0	60.0	40.0	X	left	0.0542999999523	8915.0
n/a	n/a	h6	23.0	8.0	HL	66.0	35.0	60.0	40.0	X	left	0.0681999999881	8981.0
n/a	n/a	h6	23.0	9.0	HL	54.0	40.0	60.0	40.0	X	left	0.0495	9035.0
n/a	n/a	h6	24.0	0.0	LH	40.0	38.0	40.0	48.0	L	left	0.201	9075.0
n/a	n/a	h6	24.0	1.0	LH	37.0	44.0	40.0	48.0	L	left	0.118	9112.0
n/a	n/a	h6	24.0	2.0	LH	60.0	44.0	40.0	48.0	R	right	0.100800000012	9156.0
n/a	n/a	h6	24.0	3.0	LH	42.0	52.0	40.0	48.0	R	right	0.0986000000238	9208.0
n/a	n/a	h6	24.0	4.0	LH	52.0	55.0	40.0	48.0	X	left	0.068	9260.0
n/a	n/a	h6	24.0	5.0	LH	46.0	51.0	40.0	48.0	X	right	0.0679000000358	9311.0
n/a	n/a	h6	24.0	6.0	LH	50.0	51.0	40.0	48.0	X	left	0.0523999999762	9361.0
n/a	n/a	h6	24.0	7.0	LH	47.0	34.0	40.0	48.0	X	right	0.0843000000119	9395.0
n/a	n/a	h6	24.0	8.0	LH	30.0	49.0	40.0	48.0	X	left	0.206199999988	9425.0
n/a	n/a	h6	24.0	9.0	LH	29.0	53.0	40.0	48.0	X	left	0.031	9454.0
n/a	n/a	h6	25.0	0.0	LH	25.0	48.0	20.0	40.0	L	left	0.203299999952	9479.0
n/a	n/a	h6	25.0	1.0	LH	20.0	48.0	20.0	40.0	R	right	0.0523999999762	9527.0
n/a	n/a	h6	25.0	2.0	LH	8.0	28.0	20.0	40.0	R	right	0.267199999988	9555.0
n/a	n/a	h6	25.0	3.0	LH	22.0	33.0	20.0	40.0	L	left	0.0445	9577.0
n/a	n/a	h6	25.0	4.0	LH	29.0	28.0	20.0	40.0	X	right	0.402299999952	9605.0
n/a	n/a	h6	25.0	5.0	LH	16.0	39.0	20.0	40.0	X	left	0.0366999999881	9621.0
n/a	n/a	h6	25.0	6.0	LH	41.0	51.0	20.0	40.0	X	right	0.125399999976	9672.0
n/a	n/a	h6	25.0	7.0	LH	22.0	35.0	20.0	40.0	X	left	0.0903000000119	9694.0
n/a	n/a	h6	25.0	8.0	LH	30.0	50.0	20.0	40.0	X	right	0.00109999996423	9744.0
n/a	n/a	h6	25.0	9.0	LH	14.0	34.0	20.0	40.0	X	right	0.0523000000119	9778.0
n/a	n/a	h6	26.0	0.0	LH	69.0	46.0	56.0	60.0	R	right	0.190699999988	9824.0
n/a	n/a	h6	26.0	1.0	LH	65.0	53.0	56.0	60.0	L	left	0.102099999964	9889.0
n/a	n/a	h6	26.0	2.0	LH	57.0	59.0	56.0	60.0	L	left	0.368	9946.0
n/a	n/a	h6	26.0	3.0	LH	62.0	60.0	56.0	60.0	L	left	0.374900000036	10008.0
n/a	n/a	h6	26.0	4.0	LH	50.0	63.0	56.0	60.0	X	right	0.0170999999642	10071.0
n/a	n/a	h6	26.0	5.0	LH	55.0	68.0	56.0	60.0	X	left	0.242800000012	10126.0
n/a	n/a	h6	26.0	6.0	LH	59.0	64.0	56.0	60.0	X	right	0.0251000000239	10190.0
n/a	n/a	h6	26.0	7.0	LH	46.0	52.0	56.0	60.0	X	left	0.334	10236.0
n/a	n/a	h6	26.0	8.0	LH	68.0	58.0	56.0	60.0	X	right	0.0168999999761	10294.0
n/a	n/a	h6	26.0	9.0	LH	62.0	62.0	56.0	60.0	X	right	0.254699999988	10356.0
n/a	n/a	h1	27.0	0.0	HL	57.0	35.0	60.0	40.0	L	left	0.290099999964	10413.0
n/a	n/a	h1	27.0	1.0	HL	63.0	50.0	60.0	40.0	R	right	0.234399999976	10463.0
n/a	n/a	h1	27.0	2.0	HL	57.0	53.0	60.0	40.0	L	left	0.2515	10520.0
n/a	n/a	h1	27.0	3.0	HL	54.0	48.0	60.0	40.0	R	right	0.390399999976	10568.0
n/a	n/a	h1	27.0	4.0	HL	62.0	36.0	60.0	40.0	X	left	0.564400000036	10630.0
n/a	n/a	h6	28.0	0.0	HL	43.0	35.0	40.0	28.0	R	right	0.168900000036	10665.0
n/a	n/a	h6	28.0	1.0	HL	31.0	21.0	40.0	28.0	R	right	0.127399999976	10686.0
n/a	n/a	h6	28.0	2.0	HL	40.0	28.0	40.0	28.0	R	right	0.184699999988	10714.0
n/a	n/a	h6	28.0	3.0	HL	36.0	23.0	40.0	28.0	L	left	0.0400999999642	10750.0
n/a	n/a	h6	28.0	4.0	HL	40.0	18.0	40.0	28.0	X	left	0.134800000012	10790.0
n/a	n/a	h6	28.0	5.0	HL	42.0	29.0	40.0	28.0	X	right	0.0327000000477	10819.0
n/a	n/a	h6	28.0	6.0	HL	38.0	28.0	40.0	28.0	X	left	0.1085	10857.0
n/a	n/a	h6	28.0	7.0	HL	43.0	25.0	40.0	28.0	X	left	0.123800000012	10900.0
n/a	n/a	h6	28.0	8.0	HL	43.0	29.0	40.0	28.0	X	right	0.00140000003574	10929.0
n/a	n/a	h6	28.0	9.0	HL	45.0	26.0	40.0	28.0	X	left	0.0509000000358	10974.0
n/a	n/a	h6	29.0	0.0	LH	55.0	58.0	40.0	52.0	L	left	0.351100000024	11029.0
n/a	n/a	h6	29.0	1.0	LH	32.0	39.0	40.0	52.0	R	right	0.301900000036	11068.0
n/a	n/a	h6	29.0	2.0	LH	52.0	53.0	40.0	52.0	L	left	0.140400000036	11120.0
n/a	n/a	h6	29.0	3.0	LH	62.0	54.0	40.0	52.0	R	right	0.191599999964	11174.0
n/a	n/a	h6	29.0	4.0	LH	37.0	56.0	40.0	52.0	X	left	0.218199999988	11211.0
n/a	n/a	h6	29.0	5.0	LH	45.0	43.0	40.0	52.0	X	left	0.100100000024	11256.0
n/a	n/a	h6	29.0	6.0	LH	22.0	51.0	40.0	52.0	X	right	0.0174000000358	11307.0
n/a	n/a	h6	29.0	7.0	LH	45.0	42.0	40.0	52.0	X	right	0.234899999976	11349.0
n/a	n/a	h6	29.0	8.0	LH	49.0	51.0	40.0	52.0	X	left	0.0256000000238	11398.0
n/a	n/a	h6	29.0	9.0	LH	34.0	68.0	40.0	52.0	X	left	0.756099999964	11432.0
n/a	n/a	h1	30.0	0.0	LH	43.0	75.0	40.0	70.0	R	right	0.250300000012	11507.0
n/a	n/a	h1	30.0	1.0	LH	30.0	80.0	40.0	70.0	R	right	0.0391999999881	11587.0
n/a	n/a	h1	30.0	2.0	LH	40.0	70.0	40.0	70.0	R	right	0.0974000000358	11657.0
n/a	n/a	h1	30.0	3.0	LH	22.0	65.0	40.0	70.0	L	left	0.434599999964	11679.0
n/a	n/a	h1	30.0	4.0	LH	40.0	78.0	40.0	70.0	X	right	0.134299999952	11757.0
n/a	n/a	h1	31.0	0.0	HL	60.0	66.0	68.0	60.0	R	right	0.1335	11823.0
n/a	n/a	h1	31.0	1.0	HL	76.0	54.0	68.0	60.0	L	left	0.135099999964	11899.0
n/a	n/a	h1	31.0	2.0	HL	62.0	51.0	68.0	60.0	L	left	0.267399999976	11961.0
n/a	n/a	h1	31.0	3.0	HL	57.0	44.0	68.0	60.0	R	right	0.117600000024	12005.0
n/a	n/a	h1	31.0	4.0	HL	64.0	60.0	68.0	60.0	X	left	0.176300000012	12069.0
n/a	n/a	h1	32.0	0.0	HL	30.0	11.0	40.0	10.0	R	right	0.168700000048	12080.0
n/a	n/a	h1	32.0	1.0	HL	39.0	7.0	40.0	10.0	L	left	0.134599999964	12119.0
n/a	n/a	h1	32.0	2.0	HL	45.0	1.0	40.0	10.0	R	right	0.134600000024	12120.0
n/a	n/a	h1	32.0	3.0	HL	34.0	9.0	40.0	10.0	L	left	0.0676999999881	12154.0
n/a	n/a	h1	32.0	4.0	HL	46.0	17.0	40.0	10.0	X	left	0.0683000000119	12200.0
n/a	n/a	h6	33.0	0.0	HL	49.0	36.0	60.0	40.0	L	left	0.201300000012	12249.0
n/a	n/a	h6	33.0	1.0	HL	68.0	43.0	60.0	40.0	R	right	0.151699999988	12292.0
n/a	n/a	h6	33.0	2.0	HL	55.0	40.0	60.0	40.0	L	left	0.0681999999881	12347.0
n/a	n/a	h6	33.0	3.0	HL	67.0	41.0	60.0	40.0	R	right	0.141400000036	12388.0
n/a	n/a	h6	33.0	4.0	HL	59.0	49.0	60.0	40.0	X	left	0.119100000024	12447.0
n/a	n/a	h6	33.0	5.0	HL	60.0	28.0	60.0	40.0	X	right	0.101599999964	12475.0
n/a	n/a	h6	33.0	6.0	HL	50.0	48.0	60.0	40.0	X	left	0.09	12525.0
n/a	n/a	h6	33.0	7.0	HL	64.0	50.0	60.0	40.0	X	left	0.0678000000119	12589.0
n/a	n/a	h6	33.0	8.0	HL	57.0	31.0	60.0	40.0	X	left	0.0388999999762	12646.0
n/a	n/a	h6	33.0	9.0	HL	54.0	45.0	60.0	40.0	X	left	0.0670999999643	12700.0
n/a	n/a	h6	34.0	0.0	LH	53.0	77.0	60.0	80.0	L	left	0.1005	12753.0
n/a	n/a	h6	34.0	1.0	LH	60.0	78.0	60.0	80.0	L	left	0.167699999988	12813.0
n/a	n/a	h6	34.0	2.0	LH	58.0	68.0	60.0	80.0	L	left	0.240300000012	12871.0
n/a	n/a	h6	34.0	3.0	LH	57.0	67.0	60.0	80.0	R	right	0.168399999976	12938.0
n/a	n/a	h6	34.0	4.0	LH	66.0	90.0	60.0	80.0	X	left	0.1715	13004.0
n/a	n/a	h6	34.0	5.0	LH	81.0	75.0	60.0	80.0	X	right	0.0688999999761	13079.0
n/a	n/a	h6	34.0	6.0	LH	67.0	84.0	60.0	80.0	X	right	0.218100000024	13163.0
n/a	n/a	h6	34.0	7.0	LH	62.0	68.0	60.0	80.0	X	right	0.532300000012	13231.0
n/a	n/a	h6	34.0	8.0	LH	72.0	88.0	60.0	80.0	X	right	0.0348999999761	13319.0
n/a	n/a	h6	34.0	9.0	LH	58.0	63.0	60.0	80.0	X	right	0.0843000000119	13382.0
n/a	n/a	h6	35.0	0.0	LH	27.0	80.0	30.0	60.0	R	right	0.217	13462.0
n/a	n/a	h6	35.0	1.0	LH	40.0	61.0	30.0	60.0	R	right	0.0667999999523	13523.0
n/a	n/a	h6	35.0	2.0	LH	20.0	58.0	30.0	60.0	L	left	0.134199999988	13543.0
n/a	n/a	h6	35.0	3.0	LH	25.0	65.0	30.0	60.0	L	left	0.118	13568.0
n/a	n/a	h6	35.0	4.0	LH	30.0	62.0	30.0	60.0	X	right	0.051	13630.0
n/a	n/a	h6	35.0	5.0	LH	38.0	58.0	30.0	60.0	X	right	0.0349000000357	13688.0
n/a	n/a	h6	35.0	6.0	LH	32.0	69.0	30.0	60.0	X	right	0.418699999988	13757.0
n/a	n/a	h6	35.0	7.0	LH	38.0	65.0	30.0	60.0	X	right	0.0503999999762	13822.0
n/a	n/a	h6	35.0	8.0	LH	40.0	48.0	30.0	60.0	X	right	0.0365999999642	13870.0
n/a	n/a	h6	35.0	9.0	LH	18.0	68.0	30.0	60.0	X	right	0.184199999988	13938.0
n/a	n/a	h1	36.0	0.0	HL	70.0	46.0	60.0	40.0	R	right	0.137800000012	13984.0
n/a	n/a	h1	36.0	1.0	HL	54.0	36.0	60.0	40.0	R	right	0.124399999976	14020.0
n/a	n/a	h1	36.0	2.0	HL	46.0	26.0	60.0	40.0	R	right	0.234300000012	14046.0
n/a	n/a	h1	36.0	3.0	HL	68.0	32.0	60.0	40.0	L	left	0.0841000000239	14114.0
n/a	n/a	h1	36.0	4.0	HL	54.0	37.0	60.0	40.0	X	left	0.335399999976	14168.0
n/a	n/a	h1	37.0	0.0	LH	51.0	75.0	48.0	60.0	R	right	0.190699999988	14243.0
n/a	n/a	h1	37.0	1.0	LH	58.0	57.0	48.0	60.0	R	right	0.207599999964	14300.0
n/a	n/a	h1	37.0	2.0	LH	46.0	58.0	48.0	60.0	L	left	0.268300000012	14346.0
n/a	n/a	h1	37.0	3.0	LH	40.0	48.0	48.0	60.0	R	right	0.2185	14394.0
n/a	n/a	h1	37.0	4.0	LH	42.0	54.0	48.0	60.0	X	right	1.08759999996	14448.0
n/a	n/a	h6	38.0	0.0	HL	77.0	45.0	70.0	40.0	L	left	0.150900000036	14525.0
n/a	n/a	h6	38.0	1.0	HL	68.0	29.0	70.0	40.0	L	left	0.134599999964	14593.0
n/a	n/a	h6	38.0	2.0	HL	71.0	27.0	70.0	40.0	L	left	0.106400000036	14664.0
n/a	n/a	h6	38.0	3.0	HL	82.0	35.0	70.0	40.0	R	right	0.100199999988	14699.0
n/a	n/a	h6	38.0	4.0	HL	64.0	43.0	70.0	40.0	X	left	0.273400000036	14763.0
n/a	n/a	h6	38.0	5.0	HL	56.0	43.0	70.0	40.0	X	left	0.0728999999761	14819.0
n/a	n/a	h6	38.0	6.0	HL	73.0	47.0	70.0	40.0	X	left	0.104399999976	14892.0
n/a	n/a	h6	38.0	7.0	HL	80.0	40.0	70.0	40.0	X	left	0.117199999988	14972.0
n/a	n/a	h6	38.0	8.0	HL	71.0	44.0	70.0	40.0	X	left	0.068	15043.0
n/a	n/a	h6	38.0	9.0	HL	83.0	48.0	70.0	40.0	X	left	0.0841999999881	15126.0
n/a	n/a	h1	39.0	0.0	HL	39.0	32.0	44.0	40.0	L	left	0.188200000048	15165.0
n/a	n/a	h1	39.0	1.0	HL	49.0	52.0	44.0	40.0	L	left	0.00100000000003	15214.0
n/a	n/a	h1	39.0	2.0	HL	39.0	32.0	44.0	40.0	L	left	0.205300000012	15253.0
n/a	n/a	h1	39.0	3.0	HL	36.0	47.0	44.0	40.0	R	right	0.0835999999642	15300.0
n/a	n/a	h1	39.0	4.0	HL	55.0	46.0	44.0	40.0	X	right	0.289800000012	15346.0
n/a	n/a	h6	40.0	0.0	HL	36.0	38.0	40.0	28.0	L	left	0.218899999976	15382.0
n/a	n/a	h6	40.0	1.0	HL	37.0	27.0	40.0	28.0	L	left	0.138699999988	15419.0
n/a	n/a	h6	40.0	2.0	HL	33.0	23.0	40.0	28.0	R	right	0.167800000012	15442.0
n/a	n/a	h6	40.0	3.0	HL	44.0	40.0	40.0	28.0	R	right	0.0351000000238	15482.0
n/a	n/a	h6	40.0	4.0	HL	22.0	36.0	40.0	28.0	X	left	0.0185	15504.0
n/a	n/a	h6	40.0	5.0	HL	47.0	30.0	40.0	28.0	X	right	0.0755	15534.0
n/a	n/a	h6	40.0	6.0	HL	31.0	16.0	40.0	28.0	X	right	0.0905	15550.0
n/a	n/a	h6	40.0	7.0	HL	47.0	34.0	40.0	28.0	X	left	0.0343000000119	15597.0
n/a	n/a	h6	40.0	8.0	HL	39.0	20.0	40.0	28.0	X	left	0.232099999964	15636.0
n/a	n/a	h6	40.0	9.0	HL	37.0	36.0	40.0	28.0	X	left	0.0686999999881	15673.0
n/a	n/a	h1	41.0	0.0	LH	65.0	58.0	52.0	60.0	L	left	0.151300000012	15738.0
n/a	n/a	h1	41.0	1.0	LH	49.0	64.0	52.0	60.0	L	left	0.149599999964	15787.0
n/a	n/a	h1	41.0	2.0	LH	52.0	73.0	52.0	60.0	R	right	0.105	15860.0
n/a	n/a	h1	41.0	3.0	LH	52.0	64.0	52.0	60.0	R	right	0.137600000024	15924.0
n/a	n/a	h1	41.0	4.0	LH	52.0	62.0	52.0	60.0	X	right	0.104199999988	15986.0
n/a	n/a	h1	42.0	0.0	LH	43.0	75.0	40.0	70.0	R	right	0.172800000012	16061.0
n/a	n/a	h1	42.0	1.0	LH	30.0	80.0	40.0	70.0	R	right	0.157099999964	16141.0
n/a	n/a	h1	42.0	2.0	LH	40.0	70.0	40.0	70.0	R	right	0.168899999976	16211.0
n/a	n/a	h1	42.0	3.0	LH	22.0	65.0	40.0	70.0	L	left	0.075	16233.0
n/a	n/a	h1	42.0	4.0	LH	44.0	86.0	40.0	70.0	X	right	0.234199999988	16319.0
n/a	n/a	h1	43.0	0.0	LH	32.0	50.0	36.0	40.0	L	left	0.201199999988	16351.0
n/a	n/a	h1	43.0	1.0	LH	39.0	44.0	36.0	40.0	R	right	0.101199999988	16395.0
n/a	n/a	h1	43.0	2.0	LH	27.0	48.0	36.0	40.0	L	left	0.134400000036	16422.0
n/a	n/a	h1	43.0	3.0	LH	44.0	31.0	36.0	40.0	L	left	0.217800000012	16466.0
n/a	n/a	h1	43.0	4.0	LH	42.0	45.0	36.0	40.0	X	right	1.0525	16511.0
n/a	n/a	h1	44.0	0.0	HL	58.0	57.0	64.0	60.0	L	left	0.218199999988	16569.0
n/a	n/a	h1	44.0	1.0	HL	68.0	62.0	64.0	60.0	R	right	0.167300000012	16631.0
n/a	n/a	h1	44.0	2.0	HL	61.0	75.0	64.0	60.0	L	left	0.138399999976	16692.0
n/a	n/a	h1	44.0	3.0	HL	44.0	57.0	64.0	60.0	R	right	0.169599999964	16749.0
n/a	n/a	h1	44.0	4.0	HL	65.0	64.0	64.0	60.0	X	right	1.61990000004	16813.0
n/a	n/a	h1	45.0	0.0	HL	75.0	55.0	72.0	60.0	L	left	0.185	16888.0
n/a	n/a	h1	45.0	1.0	HL	69.0	58.0	72.0	60.0	R	right	0.156600000024	16946.0
n/a	n/a	h1	45.0	2.0	HL	62.0	75.0	72.0	60.0	L	left	0.0169000000357	17008.0
n/a	n/a	h1	45.0	3.0	HL	69.0	50.0	72.0	60.0	R	right	0.0841000000239	17058.0
n/a	n/a	h1	45.0	4.0	HL	60.0	48.0	72.0	60.0	X	left	0.249	17118.0
n/a	n/a	h6	46.0	0.0	LH	72.0	71.0	60.0	64.0	L	left	0.218100000024	17190.0
n/a	n/a	h6	46.0	1.0	LH	49.0	87.0	60.0	64.0	L	left	0.1675	17239.0
n/a	n/a	h6	46.0	2.0	LH	61.0	70.0	60.0	64.0	R	right	0.0583999999761	17309.0
n/a	n/a	h6	46.0	3.0	LH	61.0	76.0	60.0	64.0	R	right	0.0674000000357	17385.0
n/a	n/a	h6	46.0	4.0	LH	70.0	72.0	60.0	64.0	X	right	0.500800000012	17457.0
n/a	n/a	h6	46.0	5.0	LH	69.0	65.0	60.0	64.0	X	left	0.0671999999881	17526.0
n/a	n/a	h6	46.0	6.0	LH	60.0	52.0	60.0	64.0	X	right	0.234599999964	17578.0
n/a	n/a	h6	46.0	7.0	LH	63.0	61.0	60.0	64.0	X	left	0.0523000000119	17641.0
n/a	n/a	h6	46.0	8.0	LH	58.0	65.0	60.0	64.0	X	left	0.200699999988	17699.0
n/a	n/a	h6	46.0	9.0	LH	54.0	59.0	60.0	64.0	X	right	0.305	17758.0
n/a	n/a	h1	47.0	0.0	HL	65.0	59.0	68.0	60.0	L	left	0.235099999964	17823.0
n/a	n/a	h1	47.0	1.0	HL	57.0	58.0	68.0	60.0	R	right	0.251099999964	17881.0
n/a	n/a	h1	47.0	2.0	HL	54.0	48.0	68.0	60.0	L	left	0.217599999964	17935.0
n/a	n/a	h1	47.0	3.0	HL	70.0	61.0	68.0	60.0	L	left	0.372700000048	18005.0
n/a	n/a	h1	47.0	4.0	HL	67.0	45.0	68.0	60.0	X	left	1.08360000002	18072.0
n/a	n/a	h1	48.0	0.0	HL	67.0	22.0	60.0	30.0	R	right	0.651700000048	18094.0
n/a	n/a	h1	48.0	1.0	HL	55.0	38.0	60.0	30.0	R	right	0.208800000012	18132.0
n/a	n/a	h1	48.0	2.0	HL	83.0	34.0	60.0	30.0	R	right	0.251100000024	18166.0
n/a	n/a	h1	48.0	3.0	HL	67.0	27.0	60.0	30.0	L	left	0.025	18233.0
n/a	n/a	h1	48.0	4.0	HL	70.0	16.0	60.0	30.0	X	left	0.217899999976	18303.0
n/a	n/a	h6	49.0	0.0	HL	77.0	45.0	70.0	40.0	L	left	0.234300000012	18380.0
n/a	n/a	h6	49.0	1.0	HL	68.0	29.0	70.0	40.0	L	left	0.156300000012	18448.0
n/a	n/a	h6	49.0	2.0	HL	71.0	27.0	70.0	40.0	L	left	0.1175	18519.0
n/a	n/a	h6	49.0	3.0	HL	82.0	35.0	70.0	40.0	R	right	0.00419999998809	18554.0
n/a	n/a	h6	49.0	4.0	HL	72.0	23.0	70.0	40.0	X	left	0.0510999999642	18626.0
n/a	n/a	h6	49.0	5.0	HL	74.0	31.0	70.0	40.0	X	left	0.0323999999761	18700.0
n/a	n/a	h6	49.0	6.0	HL	86.0	53.0	70.0	40.0	X	left	0.00220000004771	18786.0
n/a	n/a	h6	49.0	7.0	HL	68.0	32.0	70.0	40.0	X	left	0.0342999999523	18854.0
n/a	n/a	h6	49.0	8.0	HL	64.0	27.0	70.0	40.0	X	left	0.0353000000119	18918.0
n/a	n/a	h6	49.0	9.0	HL	67.0	43.0	70.0	40.0	X	left	0.468300000012	18985.0
n/a	n/a	h6	50.0	0.0	HL	96.0	65.0	90.0	60.0	L	left	0.167899999976	19081.0
n/a	n/a	h6	50.0	1.0	HL	88.0	57.0	90.0	60.0	L	left	0.103899999976	19169.0
n/a	n/a	h6	50.0	2.0	HL	84.0	59.0	90.0	60.0	R	right	0.0843000000119	19228.0
n/a	n/a	h6	50.0	3.0	HL	76.0	67.0	90.0	60.0	R	right	0.441600000024	19295.0
n/a	n/a	h6	50.0	4.0	HL	89.0	66.0	90.0	60.0	X	left	0.0411000000238	19384.0
n/a	n/a	h6	50.0	5.0	HL	99.0	61.0	90.0	60.0	X	left	0.0512000000477	19483.0
n/a	n/a	h6	50.0	6.0	HL	84.0	67.0	90.0	60.0	X	left	0.4065	19567.0
n/a	n/a	h6	50.0	7.0	HL	91.0	70.0	90.0	60.0	X	left	0.0566000000239	19658.0
n/a	n/a	h6	50.0	8.0	HL	85.0	51.0	90.0	60.0	X	left	0.0892000000477	19743.0
n/a	n/a	h6	50.0	9.0	HL	83.0	72.0	90.0	60.0	X	left	0.0846000000238	19826.0
n/a	n/a	h6	51.0	0.0	HL	55.0	61.0	60.0	52.0	R	right	0.126	19887.0
n/a	n/a	h6	51.0	1.0	HL	60.0	43.0	60.0	52.0	L	left	0.155400000036	19947.0
n/a	n/a	h6	51.0	2.0	HL	65.0	62.0	60.0	52.0	L	left	0.268099999964	20012.0
n/a	n/a	h6	51.0	3.0	HL	53.0	67.0	60.0	52.0	R	right	0.036	20079.0
n/a	n/a	h6	51.0	4.0	HL	52.0	57.0	60.0	52.0	X	left	0.435199999988	20131.0
n/a	n/a	h6	51.0	5.0	HL	78.0	49.0	60.0	52.0	X	right	0.0345	20180.0
n/a	n/a	h6	51.0	6.0	HL	44.0	51.0	60.0	52.0	X	right	0.100799999952	20231.0
n/a	n/a	h6	51.0	7.0	HL	59.0	44.0	60.0	52.0	X	left	0.383299999952	20290.0
n/a	n/a	h6	51.0	8.0	HL	60.0	42.0	60.0	52.0	X	left	0.0517999999523	20350.0
n/a	n/a	h6	51.0	9.0	HL	59.0	52.0	60.0	52.0	X	left	0.101800000012	20409.0
n/a	n/a	h6	52.0	0.0	LH	40.0	38.0	40.0	48.0	L	left	0.150299999952	20449.0
n/a	n/a	h6	52.0	1.0	LH	37.0	44.0	40.0	48.0	L	left	0.0378999999762	20486.0
n/a	n/a	h6	52.0	2.0	LH	60.0	44.0	40.0	48.0	R	right	0.0338000000119	20530.0
n/a	n/a	h6	52.0	3.0	LH	42.0	52.0	40.0	48.0	R	right	0.068	20582.0
n/a	n/a	h6	52.0	4.0	LH	31.0	59.0	40.0	48.0	X	left	0.4185	20613.0
n/a	n/a	h6	52.0	5.0	LH	39.0	40.0	40.0	48.0	X	right	0.0351999999881	20653.0
n/a	n/a	h6	52.0	6.0	LH	43.0	47.0	40.0	48.0	X	left	0.184300000012	20696.0
n/a	n/a	h6	52.0	7.0	LH	50.0	47.0	40.0	48.0	X	right	0.412100000024	20743.0
n/a	n/a	h6	52.0	8.0	LH	55.0	41.0	40.0	48.0	X	right	0.182699999988	20784.0
n/a	n/a	h6	52.0	9.0	LH	34.0	45.0	40.0	48.0	X	right	0.119400000036	20829.0
n/a	n/a	h6	53.0	0.0	LH	19.0	45.0	30.0	60.0	R	right	0.269800000012	20874.0
n/a	n/a	h6	53.0	1.0	LH	39.0	62.0	30.0	60.0	L	left	0.250100000024	20913.0
n/a	n/a	h6	53.0	2.0	LH	24.0	65.0	30.0	60.0	L	left	0.167699999988	20937.0
n/a	n/a	h6	53.0	3.0	LH	42.0	55.0	30.0	60.0	L	left	1.71940000004	20979.0
n/a	n/a	h6	53.0	4.0	LH	37.0	72.0	30.0	60.0	X	right	0.639800000012	21051.0
n/a	n/a	h6	53.0	5.0	LH	31.0	61.0	30.0	60.0	X	left	0.103300000012	21082.0
n/a	n/a	h6	53.0	6.0	LH	33.0	50.0	30.0	60.0	X	right	0.388399999976	21132.0
n/a	n/a	h6	53.0	7.0	LH	29.0	88.0	30.0	60.0	X	right	0.0513000000119	21220.0
n/a	n/a	h6	53.0	8.0	LH	11.0	62.0	30.0	60.0	X	right	0.0676999999881	21282.0
n/a	n/a	h6	53.0	9.0	LH	44.0	70.0	30.0	60.0	X	right	0.067	21352.0
n/a	n/a	h6	54.0	0.0	HL	36.0	38.0	40.0	28.0	L	left	0.418199999988	21388.0
n/a	n/a	h6	54.0	1.0	HL	37.0	27.0	40.0	28.0	L	left	0.151300000012	21425.0
n/a	n/a	h6	54.0	2.0	HL	33.0	23.0	40.0	28.0	R	right	0.0673999999762	21448.0
n/a	n/a	h6	54.0	3.0	HL	44.0	40.0	40.0	28.0	R	right	0.0535	21488.0
n/a	n/a	h6	54.0	4.0	HL	27.0	30.0	40.0	28.0	X	left	0.0514000000358	21515.0
n/a	n/a	h6	54.0	5.0	HL	41.0	28.0	40.0	28.0	X	right	0.0181999999881	21543.0
n/a	n/a	h6	54.0	6.0	HL	45.0	35.0	40.0	28.0	X	left	0.0347999999523	21588.0
n/a	n/a	h6	54.0	7.0	HL	44.0	28.0	40.0	28.0	X	right	0.0748000000119	21616.0
n/a	n/a	h6	54.0	8.0	HL	42.0	30.0	40.0	28.0	X	left	0.051	21658.0
n/a	n/a	h6	54.0	9.0	HL	45.0	31.0	40.0	28.0	X	left	0.0176999999881	21703.0
n/a	n/a	h1	55.0	0.0	LH	40.0	64.0	40.0	52.0	L	left	0.156800000012	21743.0
n/a	n/a	h1	55.0	1.0	LH	44.0	52.0	40.0	52.0	L	left	0.119399999976	21787.0
n/a	n/a	h1	55.0	2.0	LH	40.0	48.0	40.0	52.0	R	right	0.107899999976	21835.0
n/a	n/a	h1	55.0	3.0	LH	58.0	62.0	40.0	52.0	L	left	0.536400000036	21893.0
n/a	n/a	h1	55.0	4.0	LH	34.0	58.0	40.0	52.0	X	left	1.26030000001	21927.0
n/a	n/a	h6	56.0	0.0	HL	60.0	56.0	60.0	52.0	R	right	0.258900000036	21983.0
n/a	n/a	h6	56.0	1.0	HL	67.0	49.0	60.0	52.0	L	left	0.084	22050.0
n/a	n/a	h6	56.0	2.0	HL	67.0	51.0	60.0	52.0	R	right	0.202099999964	22101.0
n/a	n/a	h6	56.0	3.0	HL	69.0	45.0	60.0	52.0	R	right	0.367099999964	22146.0
n/a	n/a	h6	56.0	4.0	HL	70.0	78.0	60.0	52.0	X	left	0.170800000012	22216.0
n/a	n/a	h6	56.0	5.0	HL	55.0	45.0	60.0	52.0	X	right	0.0371000000238	22261.0
n/a	n/a	h6	56.0	6.0	HL	75.0	51.0	60.0	52.0	X	left	0.00450000000001	22336.0
n/a	n/a	h6	56.0	7.0	HL	66.0	67.0	60.0	52.0	X	left	0.051300000012	22402.0
n/a	n/a	h6	56.0	8.0	HL	61.0	59.0	60.0	52.0	X	left	0.404800000012	22463.0
n/a	n/a	h6	56.0	9.0	HL	60.0	63.0	60.0	52.0	X	left	0.205399999976	22523.0
n/a	n/a	h6	57.0	0.0	HL	39.0	36.0	40.0	36.0	R	right	0.272400000036	22559.0
n/a	n/a	h6	57.0	1.0	HL	31.0	21.0	40.0	36.0	R	right	0.267699999988	22580.0
n/a	n/a	h6	57.0	2.0	HL	46.0	27.0	40.0	36.0	L	left	0.00739999997614	22626.0
n/a	n/a	h6	57.0	3.0	HL	26.0	50.0	40.0	36.0	L	left	0.0685999999642	22652.0
n/a	n/a	h6	57.0	4.0	HL	46.0	20.0	40.0	36.0	X	left	0.0515999999643	22698.0
n/a	n/a	h6	57.0	5.0	HL	45.0	22.0	40.0	36.0	X	right	0.051	22720.0
n/a	n/a	h6	57.0	6.0	HL	31.0	42.0	40.0	36.0	X	left	0.0498000000119	22751.0
n/a	n/a	h6	57.0	7.0	HL	40.0	31.0	40.0	36.0	X	left	0.0811999999881	22791.0
n/a	n/a	h6	57.0	8.0	HL	49.0	43.0	40.0	36.0	X	left	0.0183000000119	22840.0
n/a	n/a	h6	57.0	9.0	HL	35.0	38.0	40.0	36.0	X	left	0.0175999999643	22875.0
n/a	n/a	h1	58.0	0.0	HL	58.0	57.0	64.0	60.0	L	left	0.172900000036	22933.0
n/a	n/a	h1	58.0	1.0	HL	68.0	62.0	64.0	60.0	R	right	0.0678999999761	22995.0
n/a	n/a	h1	58.0	2.0	HL	61.0	75.0	64.0	60.0	L	left	0.0225	23056.0
n/a	n/a	h1	58.0	3.0	HL	44.0	57.0	64.0	60.0	R	right	0.118099999964	23113.0
n/a	n/a	h1	58.0	4.0	HL	75.0	52.0	64.0	60.0	X	right	5.29	23165.0
n/a	n/a	h6	59.0	0.0	LH	19.0	45.0	30.0	60.0	R	right	0.184800000012	23210.0
n/a	n/a	h6	59.0	1.0	LH	39.0	62.0	30.0	60.0	L	left	0.134100000024	23249.0
n/a	n/a	h6	59.0	2.0	LH	24.0	65.0	30.0	60.0	L	left	0.348600000024	23273.0
n/a	n/a	h6	59.0	3.0	LH	42.0	55.0	30.0	60.0	L	left	0.3425	23315.0
n/a	n/a	h6	59.0	4.0	LH	40.0	55.0	30.0	60.0	X	right	0.499399999976	23370.0
n/a	n/a	h6	59.0	5.0	LH	23.0	71.0	30.0	60.0	X	left	0.111199999988	23393.0
n/a	n/a	h6	59.0	6.0	LH	25.0	65.0	30.0	60.0	X	right	0.0356000000238	23458.0
n/a	n/a	h6	59.0	7.0	LH	28.0	55.0	30.0	60.0	X	right	0.117600000024	23513.0
n/a	n/a	h6	59.0	8.0	LH	17.0	65.0	30.0	60.0	X	right	0.0844000000358	23578.0
n/a	n/a	h6	59.0	9.0	LH	30.0	64.0	30.0	60.0	X	right	0.102699999988	23642.0
n/a	n/a	h6	60.0	0.0	LH	69.0	46.0	56.0	60.0	R	right	0.150899999976	23688.0
n/a	n/a	h6	60.0	1.0	LH	65.0	53.0	56.0	60.0	L	left	0.0681000000239	23753.0
n/a	n/a	h6	60.0	2.0	LH	57.0	59.0	56.0	60.0	L	left	0.2895	23810.0
n/a	n/a	h6	60.0	3.0	LH	62.0	60.0	56.0	60.0	L	left	0.5435	23872.0
n/a	n/a	h6	60.0	4.0	LH	57.0	51.0	56.0	60.0	X	right	0.0588999999762	23923.0
n/a	n/a	h6	60.0	5.0	LH	58.0	50.0	56.0	60.0	X	left	0.0185	23981.0
n/a	n/a	h6	60.0	6.0	LH	54.0	48.0	56.0	60.0	X	left	0.0515999999643	24035.0
n/a	n/a	h6	60.0	7.0	LH	64.0	68.0	56.0	60.0	X	right	0.0172999999523	24103.0
n/a	n/a	h6	60.0	8.0	LH	55.0	54.0	56.0	60.0	X	right	0.682	24157.0
n/a	n/a	h6	60.0	9.0	LH	44.0	62.0	56.0	60.0	X	right	0.101	24219.0
n/a	n/a	h1	61.0	0.0	HL	57.0	35.0	60.0	40.0	L	left	0.436199999988	24276.0
n/a	n/a	h1	61.0	1.0	HL	63.0	50.0	60.0	40.0	R	right	0.151400000036	24326.0
n/a	n/a	h1	61.0	2.0	HL	57.0	53.0	60.0	40.0	L	left	0.0526000000239	24383.0
n/a	n/a	h1	61.0	3.0	HL	54.0	48.0	60.0	40.0	R	right	0.0678000000119	24431.0
n/a	n/a	h1	61.0	4.0	HL	58.0	42.0	60.0	40.0	X	left	0.651200000048	24489.0
n/a	n/a	h6	62.0	0.0	HL	60.0	56.0	60.0	52.0	R	right	0.239899999976	24545.0
n/a	n/a	h6	62.0	1.0	HL	67.0	49.0	60.0	52.0	L	left	0.0679000000358	24612.0
n/a	n/a	h6	62.0	2.0	HL	67.0	51.0	60.0	52.0	R	right	0.0357999999523	24663.0
n/a	n/a	h6	62.0	3.0	HL	69.0	45.0	60.0	52.0	R	right	0.468300000012	24708.0
n/a	n/a	h6	62.0	4.0	HL	57.0	49.0	60.0	52.0	X	left	1.13430000001	24765.0
n/a	n/a	h6	62.0	5.0	HL	62.0	39.0	60.0	52.0	X	right	0.0515	24804.0
n/a	n/a	h6	62.0	6.0	HL	42.0	47.0	60.0	52.0	X	left	0.244900000036	24846.0
n/a	n/a	h6	62.0	7.0	HL	69.0	36.0	60.0	52.0	X	right	0.568899999976	24882.0
n/a	n/a	h6	62.0	8.0	HL	62.0	53.0	60.0	52.0	X	left	0.167699999988	24944.0
n/a	n/a	h6	62.0	9.0	HL	58.0	56.0	60.0	52.0	X	left	0.126399999976	25002.0
n/a	n/a	h6	63.0	0.0	LH	53.0	77.0	60.0	80.0	L	left	0.150800000012	25055.0
n/a	n/a	h6	63.0	1.0	LH	60.0	78.0	60.0	80.0	L	left	0.251199999988	25115.0
n/a	n/a	h6	63.0	2.0	LH	58.0	68.0	60.0	80.0	L	left	0.158800000012	25173.0
n/a	n/a	h6	63.0	3.0	LH	57.0	67.0	60.0	80.0	R	right	0.150800000012	25240.0
n/a	n/a	h6	63.0	4.0	LH	64.0	82.0	60.0	80.0	X	right	0.3405	25322.0
n/a	n/a	h6	63.0	5.0	LH	65.0	89.0	60.0	80.0	X	left	0.0353999999762	25387.0
n/a	n/a	h6	63.0	6.0	LH	58.0	72.0	60.0	80.0	X	right	0.0345999999643	25459.0
n/a	n/a	h6	63.0	7.0	LH	56.0	73.0	60.0	80.0	X	right	0.439699999988	25532.0
n/a	n/a	h6	63.0	8.0	LH	59.0	91.0	60.0	80.0	X	right	0.00120000004767	25623.0
n/a	n/a	h6	63.0	9.0	LH	48.0	81.0	60.0	80.0	X	right	0.0234000000358	25704.0
n/a	n/a	h1	64.0	0.0	LH	25.0	38.0	32.0	40.0	L	left	0.338299999952	25729.0
n/a	n/a	h1	64.0	1.0	LH	29.0	57.0	32.0	40.0	L	left	0.201100000024	25758.0
n/a	n/a	h1	64.0	2.0	LH	44.0	23.0	32.0	40.0	R	right	0.00849999999997	25781.0
n/a	n/a	h1	64.0	3.0	LH	36.0	31.0	32.0	40.0	L	left	0.384899999976	25817.0
n/a	n/a	h1	64.0	4.0	LH	14.0	47.0	32.0	40.0	X	right	0.522199999988	25864.0
n/a	n/a	h6	65.0	0.0	LH	44.0	39.0	40.0	48.0	R	right	0.166199999988	25903.0
n/a	n/a	h6	65.0	1.0	LH	50.0	55.0	40.0	48.0	R	right	0.2015	25958.0
n/a	n/a	h6	65.0	2.0	LH	53.0	56.0	40.0	48.0	L	left	0.410299999952	26011.0
n/a	n/a	h6	65.0	3.0	LH	49.0	58.0	40.0	48.0	R	right	0.217600000024	26069.0
n/a	n/a	h6	65.0	4.0	LH	37.0	38.0	40.0	48.0	X	right	0.534800000012	26107.0
n/a	n/a	h6	65.0	5.0	LH	46.0	28.0	40.0	48.0	X	left	0.051	26153.0
n/a	n/a	h6	65.0	6.0	LH	44.0	50.0	40.0	48.0	X	left	0.0523999999762	26197.0
n/a	n/a	h6	65.0	7.0	LH	51.0	64.0	40.0	48.0	X	left	0.100600000024	26248.0
n/a	n/a	h6	65.0	8.0	LH	36.0	56.0	40.0	48.0	X	left	0.0515	26284.0
n/a	n/a	h6	65.0	9.0	LH	47.0	42.0	40.0	48.0	X	left	0.0671999999881	26331.0
n/a	n/a	h6	66.0	0.0	HL	28.0	15.0	40.0	20.0	L	left	0.153200000048	26359.0
n/a	n/a	h6	66.0	1.0	HL	53.0	16.0	40.0	20.0	L	left	0.183899999976	26412.0
n/a	n/a	h6	66.0	2.0	HL	55.0	28.0	40.0	20.0	L	left	0.151399999976	26467.0
n/a	n/a	h6	66.0	3.0	HL	53.0	28.0	40.0	20.0	R	right	0.100900000036	26495.0
n/a	n/a	h6	66.0	4.0	HL	40.0	24.0	40.0	20.0	X	right	0.140199999988	26519.0
n/a	n/a	h6	66.0	5.0	HL	52.0	24.0	40.0	20.0	X	left	0.0083000000119	26571.0
n/a	n/a	h6	66.0	6.0	HL	34.0	16.0	40.0	20.0	X	left	0.051	26605.0
n/a	n/a	h6	66.0	7.0	HL	24.0	24.0	40.0	20.0	X	left	0.000899999976184	26629.0
n/a	n/a	h6	66.0	8.0	HL	40.0	23.0	40.0	20.0	X	right	0.701800000012	26652.0
n/a	n/a	h6	66.0	9.0	HL	45.0	21.0	40.0	20.0	X	left	0.1345	26697.0
n/a	n/a	h6	67.0	0.0	LH	60.0	79.0	60.0	72.0	R	right	11.8871	26776.0
n/a	n/a	h6	67.0	1.0	LH	57.0	66.0	60.0	72.0	R	right	0.119599999964	26842.0
n/a	n/a	h6	67.0	2.0	LH	64.0	65.0	60.0	72.0	L	left	0.318100000024	26906.0
n/a	n/a	h6	67.0	3.0	LH	63.0	69.0	60.0	72.0	R	right	0.251900000036	26975.0
n/a	n/a	h6	67.0	4.0	LH	65.0	75.0	60.0	72.0	X	left	0.518300000012	27040.0
n/a	n/a	h6	67.0	5.0	LH	52.0	77.0	60.0	72.0	X	right	0.0173000000119	27117.0
n/a	n/a	h6	67.0	6.0	LH	73.0	86.0	60.0	72.0	X	right	0.0506999999881	27203.0
n/a	n/a	h6	67.0	7.0	LH	66.0	80.0	60.0	72.0	X	right	0.0176999999881	27283.0
n/a	n/a	h6	67.0	8.0	LH	57.0	73.0	60.0	72.0	X	right	0.427200000048	27356.0
n/a	n/a	h6	67.0	9.0	LH	60.0	75.0	60.0	72.0	X	right	0.0685	27431.0
n/a	n/a	h1	68.0	0.0	LH	45.0	56.0	40.0	60.0	R	right	0.217899999976	27487.0
n/a	n/a	h1	68.0	1.0	LH	29.0	52.0	40.0	60.0	R	right	0.0762999999523	27539.0
n/a	n/a	h1	68.0	2.0	LH	47.0	60.0	40.0	60.0	R	right	0.176099999964	27599.0
n/a	n/a	h1	68.0	3.0	LH	36.0	57.0	40.0	60.0	L	left	0.044199999988	27635.0
n/a	n/a	h1	68.0	4.0	LH	41.0	51.0	40.0	60.0	X	right	0.301300000012	27686.0
n/a	n/a	h6	69.0	0.0	LH	25.0	48.0	20.0	40.0	L	left	0.217699999988	27711.0
n/a	n/a	h6	69.0	1.0	LH	20.0	48.0	20.0	40.0	R	right	0.0409999999999	27759.0
n/a	n/a	h6	69.0	2.0	LH	8.0	28.0	20.0	40.0	R	right	0.178399999976	27787.0
n/a	n/a	h6	69.0	3.0	LH	22.0	33.0	20.0	40.0	L	left	0.0173999999762	27809.0
n/a	n/a	h6	69.0	4.0	LH	22.0	50.0	20.0	40.0	X	right	0.129400000036	27859.0
n/a	n/a	h6	69.0	5.0	LH	24.0	35.0	20.0	40.0	X	right	0.0513000000119	27894.0
n/a	n/a	h6	69.0	6.0	LH	14.0	40.0	20.0	40.0	X	left	0.00110000002383	27908.0
n/a	n/a	h6	69.0	7.0	LH	27.0	49.0	20.0	40.0	X	right	0.0209000000358	27957.0
n/a	n/a	h6	69.0	8.0	LH	31.0	37.0	20.0	40.0	X	right	0.0508999999761	27994.0
n/a	n/a	h6	69.0	9.0	LH	26.0	57.0	20.0	40.0	X	right	0.368099999964	28051.0
n/a	n/a	h1	70.0	0.0	LH	32.0	76.0	40.0	60.0	L	left	0.184	28083.0
n/a	n/a	h1	70.0	1.0	LH	37.0	65.0	40.0	60.0	R	right	0.106699999988	28148.0
n/a	n/a	h1	70.0	2.0	LH	46.0	68.0	40.0	60.0	L	left	0.134600000024	28194.0
n/a	n/a	h1	70.0	3.0	LH	37.0	69.0	40.0	60.0	R	right	0.0844000000358	28263.0
n/a	n/a	h1	70.0	4.0	LH	31.0	55.0	40.0	60.0	X	right	0.0730000000001	28318.0
n/a	n/a	h1	71.0	0.0	LH	48.0	67.0	40.0	70.0	R	right	0.210300000012	28385.0
n/a	n/a	h1	71.0	1.0	LH	47.0	62.0	40.0	70.0	L	left	0.101199999988	28432.0
n/a	n/a	h1	71.0	2.0	LH	39.0	62.0	40.0	70.0	R	right	0.0731999999881	28494.0
n/a	n/a	h1	71.0	3.0	LH	50.0	65.0	40.0	70.0	L	left	0.00100000000009	28544.0
n/a	n/a	h1	71.0	4.0	LH	31.0	64.0	40.0	70.0	X	right	0.0173000000119	28608.0
n/a	n/a	h1	72.0	0.0	LH	32.0	50.0	36.0	40.0	L	left	0.175899999976	28640.0
n/a	n/a	h1	72.0	1.0	LH	39.0	44.0	36.0	40.0	R	right	0.100799999952	28684.0
n/a	n/a	h1	72.0	2.0	LH	27.0	48.0	36.0	40.0	L	left	0.000900000035699	28711.0
n/a	n/a	h1	72.0	3.0	LH	44.0	31.0	36.0	40.0	L	left	0.3345	28755.0
n/a	n/a	h1	72.0	4.0	LH	32.0	33.0	36.0	40.0	X	right	1.29190000004	28788.0
n/a	n/a	h1	73.0	0.0	LH	31.0	44.0	28.0	40.0	R	right	0.138300000012	28832.0
n/a	n/a	h1	73.0	1.0	LH	27.0	39.0	28.0	40.0	L	left	0.156599999964	28859.0
n/a	n/a	h1	73.0	2.0	LH	25.0	54.0	28.0	40.0	R	right	0.351300000012	28913.0
n/a	n/a	h1	73.0	3.0	LH	29.0	30.0	28.0	40.0	L	left	0.102900000036	28942.0
n/a	n/a	h1	73.0	4.0	LH	26.0	45.0	28.0	40.0	X	right	0.404	28987.0
n/a	n/a	h1	74.0	0.0	LH	51.0	75.0	48.0	60.0	R	right	0.186900000036	29062.0
n/a	n/a	h1	74.0	1.0	LH	58.0	57.0	48.0	60.0	R	right	0.301300000012	29119.0
n/a	n/a	h1	74.0	2.0	LH	46.0	58.0	48.0	60.0	L	left	0.0175999999643	29165.0
n/a	n/a	h1	74.0	3.0	LH	40.0	48.0	48.0	60.0	R	right	0.224200000048	29213.0
n/a	n/a	h1	74.0	4.0	LH	29.0	51.0	48.0	60.0	X	right	0.527300000012	29264.0
n/a	n/a	h1	75.0	0.0	LH	66.0	43.0	56.0	60.0	L	left	0.368699999988	29330.0
n/a	n/a	h1	75.0	1.0	LH	33.0	67.0	56.0	60.0	R	right	0.238699999988	29397.0
n/a	n/a	h1	75.0	2.0	LH	42.0	59.0	56.0	60.0	L	left	0.101799999952	29439.0
n/a	n/a	h1	75.0	3.0	LH	55.0	64.0	56.0	60.0	R	right	0.132099999964	29503.0
n/a	n/a	h1	75.0	4.0	LH	58.0	59.0	56.0	60.0	X	right	0.469699999988	29562.0
n/a	n/a	h6	76.0	0.0	HL	55.0	61.0	60.0	52.0	R	right	0.175900000036	29623.0
n/a	n/a	h6	76.0	1.0	HL	60.0	43.0	60.0	52.0	L	left	0.122699999988	29683.0
n/a	n/a	h6	76.0	2.0	HL	65.0	62.0	60.0	52.0	L	left	0.268899999976	29748.0
n/a	n/a	h6	76.0	3.0	HL	53.0	67.0	60.0	52.0	R	right	0.0177999999523	29815.0
n/a	n/a	h6	76.0	4.0	HL	61.0	57.0	60.0	52.0	X	left	0.415899999976	29876.0
n/a	n/a	h6	76.0	5.0	HL	59.0	41.0	60.0	52.0	X	right	0.0516000000239	29917.0
n/a	n/a	h6	76.0	6.0	HL	42.0	45.0	60.0	52.0	X	left	0.182400000036	29959.0
n/a	n/a	h6	76.0	7.0	HL	60.0	45.0	60.0	52.0	X	right	0.418199999988	30004.0
n/a	n/a	h6	76.0	8.0	HL	64.0	53.0	60.0	52.0	X	left	0.199300000012	30068.0
n/a	n/a	h6	76.0	9.0	HL	56.0	38.0	60.0	52.0	X	left	0.174600000024	30124.0
n/a	n/a	h1	77.0	0.0	LH	65.0	58.0	52.0	60.0	L	left	0.138099999964	30189.0
n/a	n/a	h1	77.0	1.0	LH	49.0	64.0	52.0	60.0	L	left	0.285099999964	30238.0
n/a	n/a	h1	77.0	2.0	LH	52.0	73.0	52.0	60.0	R	right	0.1345	30311.0
n/a	n/a	h1	77.0	3.0	LH	52.0	64.0	52.0	60.0	R	right	0.3015	30375.0
n/a	n/a	h1	77.0	4.0	LH	57.0	61.0	52.0	60.0	X	right	2.074	30436.0
n/a	n/a	h6	78.0	0.0	LH	60.0	79.0	60.0	72.0	R	right	0.2395	30515.0
n/a	n/a	h6	78.0	1.0	LH	57.0	66.0	60.0	72.0	R	right	0.184699999988	30581.0
n/a	n/a	h6	78.0	2.0	LH	64.0	65.0	60.0	72.0	L	left	0.12	30645.0
n/a	n/a	h6	78.0	3.0	LH	63.0	69.0	60.0	72.0	R	right	0.183900000036	30714.0
n/a	n/a	h6	78.0	4.0	LH	67.0	90.0	60.0	72.0	X	right	0.122600000024	30804.0
n/a	n/a	h6	78.0	5.0	LH	56.0	63.0	60.0	72.0	X	left	0.0563000000119	30860.0
n/a	n/a	h6	78.0	6.0	LH	53.0	64.0	60.0	72.0	X	right	0.000999999999976	30924.0
n/a	n/a	h6	78.0	7.0	LH	65.0	72.0	60.0	72.0	X	right	0.0393000000118	30996.0
n/a	n/a	h6	78.0	8.0	LH	54.0	66.0	60.0	72.0	X	right	0.0509999999999	31062.0
n/a	n/a	h6	78.0	9.0	LH	63.0	62.0	60.0	72.0	X	right	0.0178999999762	31124.0
n/a	n/a	h1	79.0	0.0	LH	45.0	56.0	40.0	60.0	R	right	0.151199999988	31180.0
n/a	n/a	h1	79.0	1.0	LH	29.0	52.0	40.0	60.0	R	right	0.151200000048	31232.0
n/a	n/a	h1	79.0	2.0	LH	47.0	60.0	40.0	60.0	R	right	0.2515	31292.0
n/a	n/a	h1	79.0	3.0	LH	36.0	57.0	40.0	60.0	L	left	0.1085	31328.0
n/a	n/a	h1	79.0	4.0	LH	31.0	50.0	40.0	60.0	X	right	0.455900000036	31378.0
