onset	duration	trial_type	trial_number	bandit_num	mean_type	left_reward	right_reward	left_mean	right_mean	force_pos	response	response_time	points
n/a	n/a	h1	0.0	0.0	LH	40.0	64.0	40.0	52.0	L	left	2.00122500001	40.0
n/a	n/a	h1	0.0	1.0	LH	44.0	52.0	40.0	52.0	L	left	0.183770000003	84.0
n/a	n/a	h1	0.0	2.0	LH	40.0	48.0	40.0	52.0	R	right	0.167825000011	132.0
n/a	n/a	h1	0.0	3.0	LH	58.0	62.0	40.0	52.0	L	left	0.151524999994	190.0
n/a	n/a	h1	0.0	4.0	LH	52.0	40.0	40.0	52.0	X	left	1.23556499998	242.0
n/a	n/a	h6	1.0	0.0	LH	58.0	58.0	60.0	64.0	R	right	0.385874999978	300.0
n/a	n/a	h6	1.0	1.0	LH	59.0	60.0	60.0	64.0	L	left	0.152174999996	359.0
n/a	n/a	h6	1.0	2.0	LH	61.0	64.0	60.0	64.0	R	right	0.101190000016	423.0
n/a	n/a	h6	1.0	3.0	LH	55.0	56.0	60.0	64.0	R	right	0.17041999998	479.0
n/a	n/a	h6	1.0	4.0	LH	69.0	69.0	60.0	64.0	X	left	1.267475	548.0
n/a	n/a	h6	1.0	5.0	LH	58.0	77.0	60.0	64.0	X	left	0.468315000006	606.0
n/a	n/a	h6	1.0	6.0	LH	51.0	47.0	60.0	64.0	X	left	0.348464999988	657.0
n/a	n/a	h6	1.0	7.0	LH	52.0	56.0	60.0	64.0	X	right	0.332470000023	713.0
n/a	n/a	h6	1.0	8.0	LH	62.0	63.0	60.0	64.0	X	right	0.733484999975	776.0
n/a	n/a	h6	1.0	9.0	LH	61.0	72.0	60.0	64.0	X	right	2.83698999998	848.0
n/a	n/a	h1	2.0	0.0	LH	48.0	67.0	40.0	70.0	R	right	0.301269999996	915.0
n/a	n/a	h1	2.0	1.0	LH	47.0	62.0	40.0	70.0	L	left	0.117759999994	962.0
n/a	n/a	h1	2.0	2.0	LH	39.0	62.0	40.0	70.0	R	right	0.218865000003	1024.0
n/a	n/a	h1	2.0	3.0	LH	50.0	65.0	40.0	70.0	L	left	0.217974999978	1074.0
n/a	n/a	h1	2.0	4.0	LH	35.0	67.0	40.0	70.0	X	right	0.901725000003	1141.0
n/a	n/a	h1	3.0	0.0	LH	31.0	44.0	28.0	40.0	R	right	0.251030000043	1185.0
n/a	n/a	h1	3.0	1.0	LH	27.0	39.0	28.0	40.0	L	left	0.0526350000291	1212.0
n/a	n/a	h1	3.0	2.0	LH	25.0	54.0	28.0	40.0	R	right	0.0345349999843	1266.0
n/a	n/a	h1	3.0	3.0	LH	29.0	30.0	28.0	40.0	L	left	0.709600000002	1295.0
n/a	n/a	h1	3.0	4.0	LH	29.0	47.0	28.0	40.0	X	right	0.151279999991	1342.0
n/a	n/a	h1	4.0	0.0	HL	67.0	22.0	60.0	30.0	R	right	0.138004999957	1364.0
n/a	n/a	h1	4.0	1.0	HL	55.0	38.0	60.0	30.0	R	right	0.31786000001	1402.0
n/a	n/a	h1	4.0	2.0	HL	83.0	34.0	60.0	30.0	R	right	0.171399999992	1436.0
n/a	n/a	h1	4.0	3.0	HL	67.0	27.0	60.0	30.0	L	left	0.254914999998	1503.0
n/a	n/a	h1	4.0	4.0	HL	64.0	30.0	60.0	30.0	X	left	0.51939000003	1567.0
n/a	n/a	h1	5.0	0.0	HL	75.0	55.0	72.0	60.0	L	left	1.467985	1642.0
n/a	n/a	h1	5.0	1.0	HL	69.0	58.0	72.0	60.0	R	right	0.23496999999	1700.0
n/a	n/a	h1	5.0	2.0	HL	62.0	75.0	72.0	60.0	L	left	0.468174999987	1762.0
n/a	n/a	h1	5.0	3.0	HL	69.0	50.0	72.0	60.0	R	right	2.92339999997	1812.0
n/a	n/a	h1	5.0	4.0	HL	81.0	50.0	72.0	60.0	X	left	0.990790000011	1893.0
n/a	n/a	h1	6.0	0.0	HL	60.0	66.0	68.0	60.0	R	right	0.243295000051	1959.0
n/a	n/a	h1	6.0	1.0	HL	76.0	54.0	68.0	60.0	L	left	0.0508700000355	2035.0
n/a	n/a	h1	6.0	2.0	HL	62.0	51.0	68.0	60.0	L	left	0.318719999981	2097.0
n/a	n/a	h1	6.0	3.0	HL	57.0	44.0	68.0	60.0	R	right	0.169654999976	2141.0
n/a	n/a	h1	6.0	4.0	HL	63.0	47.0	68.0	60.0	X	left	0.418080000032	2204.0
n/a	n/a	h1	7.0	0.0	HL	39.0	32.0	44.0	40.0	L	left	0.269205000019	2243.0
n/a	n/a	h1	7.0	1.0	HL	49.0	52.0	44.0	40.0	L	left	0.301544999995	2292.0
n/a	n/a	h1	7.0	2.0	HL	39.0	32.0	44.0	40.0	L	left	0.167950000032	2331.0
n/a	n/a	h1	7.0	3.0	HL	36.0	47.0	44.0	40.0	R	right	0.151049999986	2378.0
n/a	n/a	h1	7.0	4.0	HL	39.0	37.0	44.0	40.0	X	left	0.987519999966	2417.0
n/a	n/a	h6	8.0	0.0	HL	96.0	65.0	90.0	60.0	L	left	0.192225000006	2513.0
n/a	n/a	h6	8.0	1.0	HL	88.0	57.0	90.0	60.0	L	left	0.306440000015	2601.0
n/a	n/a	h6	8.0	2.0	HL	84.0	59.0	90.0	60.0	R	right	0.192520000041	2660.0
n/a	n/a	h6	8.0	3.0	HL	76.0	67.0	90.0	60.0	R	right	0.38639	2727.0
n/a	n/a	h6	8.0	4.0	HL	99.0	71.0	90.0	60.0	X	left	0.15671000001	2826.0
n/a	n/a	h6	8.0	5.0	HL	92.0	41.0	90.0	60.0	X	left	0.00131999998121	2918.0
n/a	n/a	h6	8.0	6.0	HL	81.0	65.0	90.0	60.0	X	left	0.0179350000108	2999.0
n/a	n/a	h6	8.0	7.0	HL	95.0	52.0	90.0	60.0	X	left	0.421324999945	3094.0
n/a	n/a	h6	8.0	8.0	HL	90.0	70.0	90.0	60.0	X	left	0.0680550000397	3184.0
n/a	n/a	h6	8.0	9.0	HL	99.0	56.0	90.0	60.0	X	left	0.0207400000072	3283.0
n/a	n/a	h6	9.0	0.0	HL	39.0	36.0	40.0	36.0	R	right	0.552030000021	3319.0
n/a	n/a	h6	9.0	1.0	HL	31.0	21.0	40.0	36.0	R	right	1.80027499999	3340.0
n/a	n/a	h6	9.0	2.0	HL	46.0	27.0	40.0	36.0	L	left	0.601859999995	3386.0
n/a	n/a	h6	9.0	3.0	HL	26.0	50.0	40.0	36.0	L	left	1.28639999998	3412.0
n/a	n/a	h6	9.0	4.0	HL	41.0	28.0	40.0	36.0	X	right	3.77227000002	3440.0
n/a	n/a	h6	9.0	5.0	HL	35.0	37.0	40.0	36.0	X	right	5.05712000001	3477.0
n/a	n/a	h6	9.0	6.0	HL	36.0	38.0	40.0	36.0	X	left	0.119409999985	3513.0
n/a	n/a	h6	9.0	7.0	HL	46.0	22.0	40.0	36.0	X	right	0.0674850000069	3535.0
n/a	n/a	h6	9.0	8.0	HL	35.0	32.0	40.0	36.0	X	left	0.420095000009	3570.0
n/a	n/a	h6	9.0	9.0	HL	37.0	30.0	40.0	36.0	X	left	0.108000000007	3607.0
n/a	n/a	h1	10.0	0.0	HL	70.0	46.0	60.0	40.0	R	right	0.682529999991	3653.0
n/a	n/a	h1	10.0	1.0	HL	54.0	36.0	60.0	40.0	R	right	0.184905000031	3689.0
n/a	n/a	h1	10.0	2.0	HL	46.0	26.0	60.0	40.0	R	right	0.342275000003	3715.0
n/a	n/a	h1	10.0	3.0	HL	68.0	32.0	60.0	40.0	L	left	0.434544999967	3783.0
n/a	n/a	h1	10.0	4.0	HL	61.0	46.0	60.0	40.0	X	left	0.36804000003	3844.0
n/a	n/a	h1	11.0	0.0	HL	30.0	11.0	40.0	10.0	R	right	0.585610000009	3855.0
n/a	n/a	h1	11.0	1.0	HL	39.0	7.0	40.0	10.0	L	left	0.187674999994	3894.0
n/a	n/a	h1	11.0	2.0	HL	45.0	1.0	40.0	10.0	R	right	0.0342200000305	3895.0
n/a	n/a	h1	11.0	3.0	HL	34.0	9.0	40.0	10.0	L	left	0.233319999999	3929.0
n/a	n/a	h1	11.0	4.0	HL	33.0	19.0	40.0	10.0	X	left	0.535225	3962.0
n/a	n/a	h6	12.0	0.0	LH	27.0	80.0	30.0	60.0	R	right	0.36818499997	4042.0
n/a	n/a	h6	12.0	1.0	LH	40.0	61.0	30.0	60.0	R	right	0.251164999965	4103.0
n/a	n/a	h6	12.0	2.0	LH	20.0	58.0	30.0	60.0	L	left	0.234159999993	4123.0
n/a	n/a	h6	12.0	3.0	LH	25.0	65.0	30.0	60.0	L	left	0.267555000028	4148.0
n/a	n/a	h6	12.0	4.0	LH	34.0	60.0	30.0	60.0	X	right	1.01799000002	4208.0
n/a	n/a	h6	12.0	5.0	LH	33.0	53.0	30.0	60.0	X	right	0.20074	4261.0
n/a	n/a	h6	12.0	6.0	LH	33.0	73.0	30.0	60.0	X	right	0.0173450000002	4334.0
n/a	n/a	h6	12.0	7.0	LH	18.0	45.0	30.0	60.0	X	right	0.201345000009	4379.0
n/a	n/a	h6	12.0	8.0	LH	37.0	68.0	30.0	60.0	X	right	0.468195000023	4447.0
n/a	n/a	h6	12.0	9.0	LH	33.0	60.0	30.0	60.0	X	right	0.0508150000242	4507.0
n/a	n/a	h6	13.0	0.0	LH	58.0	58.0	60.0	64.0	R	right	0.284655000025	4565.0
n/a	n/a	h6	13.0	1.0	LH	59.0	60.0	60.0	64.0	L	left	0.0211799999815	4624.0
n/a	n/a	h6	13.0	2.0	LH	61.0	64.0	60.0	64.0	R	right	0.101064999995	4688.0
n/a	n/a	h6	13.0	3.0	LH	55.0	56.0	60.0	64.0	R	right	0.134365000005	4744.0
n/a	n/a	h6	13.0	4.0	LH	73.0	70.0	60.0	64.0	X	left	1.75287000003	4817.0
n/a	n/a	h6	13.0	5.0	LH	69.0	59.0	60.0	64.0	X	left	0.58825000003	4886.0
n/a	n/a	h6	13.0	6.0	LH	58.0	75.0	60.0	64.0	X	left	0.334970000025	4944.0
n/a	n/a	h6	13.0	7.0	LH	61.0	68.0	60.0	64.0	X	left	0.382775000005	5005.0
n/a	n/a	h6	13.0	8.0	LH	58.0	61.0	60.0	64.0	X	left	0.550749999995	5063.0
n/a	n/a	h6	13.0	9.0	LH	62.0	79.0	60.0	64.0	X	left	0.284520000045	5125.0
n/a	n/a	h6	14.0	0.0	LH	44.0	39.0	40.0	48.0	R	right	0.219044999976	5164.0
n/a	n/a	h6	14.0	1.0	LH	50.0	55.0	40.0	48.0	R	right	0.171054999984	5219.0
n/a	n/a	h6	14.0	2.0	LH	53.0	56.0	40.0	48.0	L	left	0.23800500005	5272.0
n/a	n/a	h6	14.0	3.0	LH	49.0	58.0	40.0	48.0	R	right	0.301799999957	5330.0
n/a	n/a	h6	14.0	4.0	LH	40.0	44.0	40.0	48.0	X	right	0.458574999997	5374.0
n/a	n/a	h6	14.0	5.0	LH	43.0	57.0	40.0	48.0	X	right	0.370524999977	5431.0
n/a	n/a	h6	14.0	6.0	LH	39.0	43.0	40.0	48.0	X	right	0.38638000004	5474.0
n/a	n/a	h6	14.0	7.0	LH	43.0	56.0	40.0	48.0	X	left	0.407364999992	5517.0
n/a	n/a	h6	14.0	8.0	LH	23.0	56.0	40.0	48.0	X	right	0.273430000001	5573.0
n/a	n/a	h6	14.0	9.0	LH	42.0	49.0	40.0	48.0	X	right	0.286765000026	5622.0
n/a	n/a	h1	15.0	0.0	HL	65.0	59.0	68.0	60.0	L	left	0.369805000024	5687.0
n/a	n/a	h1	15.0	1.0	HL	57.0	58.0	68.0	60.0	R	right	0.028965000005	5745.0
n/a	n/a	h1	15.0	2.0	HL	54.0	48.0	68.0	60.0	L	left	0.168445000018	5799.0
n/a	n/a	h1	15.0	3.0	HL	70.0	61.0	68.0	60.0	L	left	0.519544999988	5869.0
n/a	n/a	h1	15.0	4.0	HL	69.0	51.0	68.0	60.0	X	left	0.237500000047	5938.0
n/a	n/a	h6	16.0	0.0	LH	72.0	71.0	60.0	64.0	L	left	0.223369999963	6010.0
n/a	n/a	h6	16.0	1.0	LH	49.0	87.0	60.0	64.0	L	left	0.335644999985	6059.0
n/a	n/a	h6	16.0	2.0	LH	61.0	70.0	60.0	64.0	R	right	0.0914350000094	6129.0
n/a	n/a	h6	16.0	3.0	LH	61.0	76.0	60.0	64.0	R	right	0.353694999998	6205.0
n/a	n/a	h6	16.0	4.0	LH	71.0	66.0	60.0	64.0	X	left	0.000760000024457	6276.0
n/a	n/a	h6	16.0	5.0	LH	65.0	59.0	60.0	64.0	X	right	0.854065000021	6335.0
n/a	n/a	h6	16.0	6.0	LH	65.0	50.0	60.0	64.0	X	right	0.142244999995	6385.0
n/a	n/a	h6	16.0	7.0	LH	56.0	76.0	60.0	64.0	X	left	0.289295000024	6441.0
n/a	n/a	h6	16.0	8.0	LH	58.0	59.0	60.0	64.0	X	left	0.0843950000126	6499.0
n/a	n/a	h6	16.0	9.0	LH	71.0	64.0	60.0	64.0	X	left	0.375784999982	6570.0
n/a	n/a	h6	17.0	0.0	LH	55.0	58.0	40.0	52.0	L	left	0.789734999998	6625.0
n/a	n/a	h6	17.0	1.0	LH	32.0	39.0	40.0	52.0	R	right	0.254344999965	6664.0
n/a	n/a	h6	17.0	2.0	LH	52.0	53.0	40.0	52.0	L	left	0.08521499997	6716.0
n/a	n/a	h6	17.0	3.0	LH	62.0	54.0	40.0	52.0	R	right	0.202259999991	6770.0
n/a	n/a	h6	17.0	4.0	LH	32.0	60.0	40.0	52.0	X	right	0.85354500002	6830.0
n/a	n/a	h6	17.0	5.0	LH	45.0	51.0	40.0	52.0	X	left	0.187659999996	6875.0
n/a	n/a	h6	17.0	6.0	LH	46.0	54.0	40.0	52.0	X	right	0.301355000003	6929.0
n/a	n/a	h6	17.0	7.0	LH	43.0	58.0	40.0	52.0	X	right	0.000919999962207	6987.0
n/a	n/a	h6	17.0	8.0	LH	47.0	61.0	40.0	52.0	X	right	0.0526100000134	7048.0
n/a	n/a	h6	17.0	9.0	LH	48.0	45.0	40.0	52.0	X	right	0.319105000002	7093.0
n/a	n/a	h6	18.0	0.0	HL	28.0	15.0	40.0	20.0	L	left	0.220384999993	7121.0
n/a	n/a	h6	18.0	1.0	HL	53.0	16.0	40.0	20.0	L	left	0.317259999982	7174.0
n/a	n/a	h6	18.0	2.0	HL	55.0	28.0	40.0	20.0	L	left	0.376359999995	7229.0
n/a	n/a	h6	18.0	3.0	HL	53.0	28.0	40.0	20.0	R	right	0.267899999977	7257.0
n/a	n/a	h6	18.0	4.0	HL	53.0	3.0	40.0	20.0	X	left	0.738714999985	7310.0
n/a	n/a	h6	18.0	5.0	HL	40.0	15.0	40.0	20.0	X	right	0.158294999972	7325.0
n/a	n/a	h6	18.0	6.0	HL	45.0	4.0	40.0	20.0	X	left	0.28866999998	7370.0
n/a	n/a	h6	18.0	7.0	HL	41.0	20.0	40.0	20.0	X	left	0.0177699999767	7411.0
n/a	n/a	h6	18.0	8.0	HL	43.0	25.0	40.0	20.0	X	left	0.0236250000307	7454.0
n/a	n/a	h6	18.0	9.0	HL	47.0	26.0	40.0	20.0	X	left	0.370289999992	7501.0
n/a	n/a	h1	19.0	0.0	LH	66.0	43.0	56.0	60.0	L	left	0.239984999993	7567.0
n/a	n/a	h1	19.0	1.0	LH	33.0	67.0	56.0	60.0	R	right	0.0509350000066	7634.0
n/a	n/a	h1	19.0	2.0	LH	42.0	59.0	56.0	60.0	L	left	0.375750000007	7676.0
n/a	n/a	h1	19.0	3.0	LH	55.0	64.0	56.0	60.0	R	right	0.0674349999754	7740.0
n/a	n/a	h1	19.0	4.0	LH	47.0	58.0	56.0	60.0	X	right	0.0732600000338	7798.0
n/a	n/a	h1	20.0	0.0	LH	25.0	38.0	32.0	40.0	L	left	0.218210000021	7823.0
n/a	n/a	h1	20.0	1.0	LH	29.0	57.0	32.0	40.0	L	left	0.24271999998	7852.0
n/a	n/a	h1	20.0	2.0	LH	44.0	23.0	32.0	40.0	R	right	0.305894999998	7875.0
n/a	n/a	h1	20.0	3.0	LH	36.0	31.0	32.0	40.0	L	left	0.271590000018	7911.0
n/a	n/a	h1	20.0	4.0	LH	39.0	48.0	32.0	40.0	X	left	1.08706000005	7950.0
n/a	n/a	h6	21.0	0.0	HL	43.0	35.0	40.0	28.0	R	right	0.418385000026	7985.0
n/a	n/a	h6	21.0	1.0	HL	31.0	21.0	40.0	28.0	R	right	0.584545000049	8006.0
n/a	n/a	h6	21.0	2.0	HL	40.0	28.0	40.0	28.0	R	right	0.11731500004	8034.0
n/a	n/a	h6	21.0	3.0	HL	36.0	23.0	40.0	28.0	L	left	0.400780000025	8070.0
n/a	n/a	h6	21.0	4.0	HL	40.0	27.0	40.0	28.0	X	left	3.336175	8110.0
n/a	n/a	h6	21.0	5.0	HL	46.0	20.0	40.0	28.0	X	right	0.953624999966	8130.0
n/a	n/a	h6	21.0	6.0	HL	50.0	21.0	40.0	28.0	X	left	0.418715000036	8180.0
n/a	n/a	h6	21.0	7.0	HL	41.0	37.0	40.0	28.0	X	left	0.0189999999711	8221.0
n/a	n/a	h6	21.0	8.0	HL	44.0	19.0	40.0	28.0	X	left	0.484625000041	8265.0
n/a	n/a	h6	21.0	9.0	HL	37.0	25.0	40.0	28.0	X	left	0.451559999958	8302.0
n/a	n/a	h1	22.0	0.0	LH	32.0	76.0	40.0	60.0	L	left	0.173224999977	8334.0
n/a	n/a	h1	22.0	1.0	LH	37.0	65.0	40.0	60.0	R	right	0.117975000001	8399.0
n/a	n/a	h1	22.0	2.0	LH	46.0	68.0	40.0	60.0	L	left	0.0202400000417	8445.0
n/a	n/a	h1	22.0	3.0	LH	37.0	69.0	40.0	60.0	R	right	0.0845350000309	8514.0
n/a	n/a	h1	22.0	4.0	LH	40.0	53.0	40.0	60.0	X	right	0.656985000009	8567.0
n/a	n/a	h6	23.0	0.0	HL	49.0	36.0	60.0	40.0	L	left	0.151309999987	8616.0
n/a	n/a	h6	23.0	1.0	HL	68.0	43.0	60.0	40.0	R	right	0.119680000003	8659.0
n/a	n/a	h6	23.0	2.0	HL	55.0	40.0	60.0	40.0	L	left	0.090664999967	8714.0
n/a	n/a	h6	23.0	3.0	HL	67.0	41.0	60.0	40.0	R	right	0.0521600000211	8755.0
n/a	n/a	h6	23.0	4.0	HL	49.0	34.0	60.0	40.0	X	left	0.985990000016	8804.0
n/a	n/a	h6	23.0	5.0	HL	57.0	35.0	60.0	40.0	X	left	0.0903950000065	8861.0
n/a	n/a	h6	23.0	6.0	HL	55.0	50.0	60.0	40.0	X	left	0.150190000015	8916.0
n/a	n/a	h6	23.0	7.0	HL	54.0	28.0	60.0	40.0	X	left	0.34261500003	8970.0
n/a	n/a	h6	23.0	8.0	HL	66.0	35.0	60.0	40.0	X	left	0.0343900000444	9036.0
n/a	n/a	h6	23.0	9.0	HL	54.0	40.0	60.0	40.0	X	left	0.0744900000282	9090.0
n/a	n/a	h6	24.0	0.0	LH	40.0	38.0	40.0	48.0	L	left	0.276420000009	9130.0
n/a	n/a	h6	24.0	1.0	LH	37.0	44.0	40.0	48.0	L	left	0.22663999995	9167.0
n/a	n/a	h6	24.0	2.0	LH	60.0	44.0	40.0	48.0	R	right	0.451355000027	9211.0
n/a	n/a	h6	24.0	3.0	LH	42.0	52.0	40.0	48.0	R	right	0.367800000007	9263.0
n/a	n/a	h6	24.0	4.0	LH	52.0	55.0	40.0	48.0	X	left	0.248445000034	9315.0
n/a	n/a	h6	24.0	5.0	LH	46.0	51.0	40.0	48.0	X	right	0.323724999966	9366.0
n/a	n/a	h6	24.0	6.0	LH	50.0	51.0	40.0	48.0	X	right	0.178185000026	9417.0
n/a	n/a	h6	24.0	7.0	LH	47.0	34.0	40.0	48.0	X	left	0.018769999966	9464.0
n/a	n/a	h6	24.0	8.0	LH	30.0	49.0	40.0	48.0	X	left	0.154704999994	9494.0
n/a	n/a	h6	24.0	9.0	LH	29.0	53.0	40.0	48.0	X	left	0.255444999959	9523.0
n/a	n/a	h6	25.0	0.0	LH	25.0	48.0	20.0	40.0	L	left	0.241125	9548.0
n/a	n/a	h6	25.0	1.0	LH	20.0	48.0	20.0	40.0	R	right	0.0345099999686	9596.0
n/a	n/a	h6	25.0	2.0	LH	8.0	28.0	20.0	40.0	R	right	0.38354000001	9624.0
n/a	n/a	h6	25.0	3.0	LH	22.0	33.0	20.0	40.0	L	left	0.134614999988	9646.0
n/a	n/a	h6	25.0	4.0	LH	29.0	28.0	20.0	40.0	X	right	0.0344250000198	9674.0
n/a	n/a	h6	25.0	5.0	LH	16.0	39.0	20.0	40.0	X	right	1.00668999995	9713.0
n/a	n/a	h6	25.0	6.0	LH	41.0	51.0	20.0	40.0	X	right	0.136865000008	9764.0
n/a	n/a	h6	25.0	7.0	LH	22.0	35.0	20.0	40.0	X	right	0.434630000032	9799.0
n/a	n/a	h6	25.0	8.0	LH	30.0	50.0	20.0	40.0	X	right	0.034329999995	9849.0
n/a	n/a	h6	25.0	9.0	LH	14.0	34.0	20.0	40.0	X	right	0.0677600000054	9883.0
n/a	n/a	h6	26.0	0.0	LH	69.0	46.0	56.0	60.0	R	right	0.133629999997	9929.0
n/a	n/a	h6	26.0	1.0	LH	65.0	53.0	56.0	60.0	L	left	0.0673450000468	9994.0
n/a	n/a	h6	26.0	2.0	LH	57.0	59.0	56.0	60.0	L	left	0.359150000033	10051.0
n/a	n/a	h6	26.0	3.0	LH	62.0	60.0	56.0	60.0	L	left	0.434209999978	10113.0
n/a	n/a	h6	26.0	4.0	LH	50.0	63.0	56.0	60.0	X	left	1.07018000004	10163.0
n/a	n/a	h6	26.0	5.0	LH	55.0	68.0	56.0	60.0	X	left	0.0550449999864	10218.0
n/a	n/a	h6	26.0	6.0	LH	59.0	64.0	56.0	60.0	X	left	0.0341100000078	10277.0
n/a	n/a	h6	26.0	7.0	LH	46.0	52.0	56.0	60.0	X	left	0.051129999978	10323.0
n/a	n/a	h6	26.0	8.0	LH	68.0	58.0	56.0	60.0	X	left	0.100550000032	10391.0
n/a	n/a	h6	26.0	9.0	LH	62.0	62.0	56.0	60.0	X	left	0.101005000004	10453.0
n/a	n/a	h1	27.0	0.0	HL	57.0	35.0	60.0	40.0	L	left	0.173315000022	10510.0
n/a	n/a	h1	27.0	1.0	HL	63.0	50.0	60.0	40.0	R	right	0.0175850000232	10560.0
n/a	n/a	h1	27.0	2.0	HL	57.0	53.0	60.0	40.0	L	left	0.024374999979	10617.0
n/a	n/a	h1	27.0	3.0	HL	54.0	48.0	60.0	40.0	R	right	0.0515000000014	10665.0
n/a	n/a	h1	27.0	4.0	HL	62.0	36.0	60.0	40.0	X	left	0.760710000002	10727.0
n/a	n/a	h6	28.0	0.0	HL	43.0	35.0	40.0	28.0	R	right	0.216955000011	10762.0
n/a	n/a	h6	28.0	1.0	HL	31.0	21.0	40.0	28.0	R	right	0.28469	10783.0
n/a	n/a	h6	28.0	2.0	HL	40.0	28.0	40.0	28.0	R	right	0.184899999993	10811.0
n/a	n/a	h6	28.0	3.0	HL	36.0	23.0	40.0	28.0	L	left	0.619160000002	10847.0
n/a	n/a	h6	28.0	4.0	HL	40.0	18.0	40.0	28.0	X	left	0.634115000023	10887.0
n/a	n/a	h6	28.0	5.0	HL	42.0	29.0	40.0	28.0	X	left	0.355414999998	10929.0
n/a	n/a	h6	28.0	6.0	HL	38.0	28.0	40.0	28.0	X	left	0.551489999983	10967.0
n/a	n/a	h6	28.0	7.0	HL	43.0	25.0	40.0	28.0	X	left	0.0844700000016	11010.0
n/a	n/a	h6	28.0	8.0	HL	43.0	29.0	40.0	28.0	X	left	0.0558600000222	11053.0
n/a	n/a	h6	28.0	9.0	HL	45.0	26.0	40.0	28.0	X	left	0.468274999992	11098.0
n/a	n/a	h6	29.0	0.0	LH	55.0	58.0	40.0	52.0	L	left	0.235349999974	11153.0
n/a	n/a	h6	29.0	1.0	LH	32.0	39.0	40.0	52.0	R	right	0.0732800000114	11192.0
n/a	n/a	h6	29.0	2.0	LH	52.0	53.0	40.0	52.0	L	left	0.0676249999669	11244.0
n/a	n/a	h6	29.0	3.0	LH	62.0	54.0	40.0	52.0	R	right	0.535090000019	11298.0
n/a	n/a	h6	29.0	4.0	LH	37.0	56.0	40.0	52.0	X	left	3.00309499999	11335.0
n/a	n/a	h6	29.0	5.0	LH	45.0	43.0	40.0	52.0	X	right	0.669085000001	11378.0
n/a	n/a	h6	29.0	6.0	LH	22.0	51.0	40.0	52.0	X	left	0.376489999995	11400.0
n/a	n/a	h6	29.0	7.0	LH	45.0	42.0	40.0	52.0	X	right	0.618275000015	11442.0
n/a	n/a	h6	29.0	8.0	LH	49.0	51.0	40.0	52.0	X	right	1.45245500002	11493.0
n/a	n/a	h6	29.0	9.0	LH	34.0	68.0	40.0	52.0	X	right	0.30143500003	11561.0
n/a	n/a	h1	30.0	0.0	LH	43.0	75.0	40.0	70.0	R	right	0.468219999981	11636.0
n/a	n/a	h1	30.0	1.0	LH	30.0	80.0	40.0	70.0	R	right	0.275490000029	11716.0
n/a	n/a	h1	30.0	2.0	LH	40.0	70.0	40.0	70.0	R	right	0.183814999997	11786.0
n/a	n/a	h1	30.0	3.0	LH	22.0	65.0	40.0	70.0	L	left	0.568585000001	11808.0
n/a	n/a	h1	30.0	4.0	LH	40.0	78.0	40.0	70.0	X	right	0.201179999975	11886.0
n/a	n/a	h1	31.0	0.0	HL	60.0	66.0	68.0	60.0	R	right	0.187680000032	11952.0
n/a	n/a	h1	31.0	1.0	HL	76.0	54.0	68.0	60.0	L	left	0.051364999963	12028.0
n/a	n/a	h1	31.0	2.0	HL	62.0	51.0	68.0	60.0	L	left	0.368030000012	12090.0
n/a	n/a	h1	31.0	3.0	HL	57.0	44.0	68.0	60.0	R	right	0.54164999997	12134.0
n/a	n/a	h1	31.0	4.0	HL	64.0	60.0	68.0	60.0	X	left	0.288954999996	12198.0
n/a	n/a	h1	32.0	0.0	HL	30.0	11.0	40.0	10.0	R	right	0.289894999994	12209.0
n/a	n/a	h1	32.0	1.0	HL	39.0	7.0	40.0	10.0	L	left	0.118685000052	12248.0
n/a	n/a	h1	32.0	2.0	HL	45.0	1.0	40.0	10.0	R	right	0.0351150000351	12249.0
n/a	n/a	h1	32.0	3.0	HL	34.0	9.0	40.0	10.0	L	left	0.401960000047	12283.0
n/a	n/a	h1	32.0	4.0	HL	46.0	17.0	40.0	10.0	X	left	0.757325000013	12329.0
n/a	n/a	h6	33.0	0.0	HL	49.0	36.0	60.0	40.0	L	left	0.201415000018	12378.0
n/a	n/a	h6	33.0	1.0	HL	68.0	43.0	60.0	40.0	R	right	0.134959999996	12421.0
n/a	n/a	h6	33.0	2.0	HL	55.0	40.0	60.0	40.0	L	left	0.00638500001514	12476.0
n/a	n/a	h6	33.0	3.0	HL	67.0	41.0	60.0	40.0	R	right	0.0844449999859	12517.0
n/a	n/a	h6	33.0	4.0	HL	59.0	49.0	60.0	40.0	X	left	0.10255499999	12576.0
n/a	n/a	h6	33.0	5.0	HL	60.0	28.0	60.0	40.0	X	left	1.32175999996	12636.0
n/a	n/a	h6	33.0	6.0	HL	50.0	48.0	60.0	40.0	X	left	0.102519999957	12686.0
n/a	n/a	h6	33.0	7.0	HL	64.0	50.0	60.0	40.0	X	left	0.0686149999965	12750.0
n/a	n/a	h6	33.0	8.0	HL	57.0	31.0	60.0	40.0	X	left	0.0919399999548	12807.0
n/a	n/a	h6	33.0	9.0	HL	54.0	45.0	60.0	40.0	X	left	0.322125000006	12861.0
n/a	n/a	h6	34.0	0.0	LH	53.0	77.0	60.0	80.0	L	left	0.199854999955	12914.0
n/a	n/a	h6	34.0	1.0	LH	60.0	78.0	60.0	80.0	L	left	0.338530000008	12974.0
n/a	n/a	h6	34.0	2.0	LH	58.0	68.0	60.0	80.0	L	left	0.238595000003	13032.0
n/a	n/a	h6	34.0	3.0	LH	57.0	67.0	60.0	80.0	R	right	0.285925000033	13099.0
n/a	n/a	h6	34.0	4.0	LH	66.0	90.0	60.0	80.0	X	right	1.93815999996	13189.0
n/a	n/a	h6	34.0	5.0	LH	81.0	75.0	60.0	80.0	X	right	0.168115000008	13264.0
n/a	n/a	h6	34.0	6.0	LH	67.0	84.0	60.0	80.0	X	right	0.0410749999573	13348.0
n/a	n/a	h6	34.0	7.0	LH	62.0	68.0	60.0	80.0	X	right	0.0355199999758	13416.0
n/a	n/a	h6	34.0	8.0	LH	72.0	88.0	60.0	80.0	X	right	0.499340000039	13504.0
n/a	n/a	h6	34.0	9.0	LH	58.0	63.0	60.0	80.0	X	right	0.0344949999708	13567.0
n/a	n/a	h6	35.0	0.0	LH	27.0	80.0	30.0	60.0	R	right	0.217890000029	13647.0
n/a	n/a	h6	35.0	1.0	LH	40.0	61.0	30.0	60.0	R	right	0.251464999979	13708.0
n/a	n/a	h6	35.0	2.0	LH	20.0	58.0	30.0	60.0	L	left	0.234729999967	13728.0
n/a	n/a	h6	35.0	3.0	LH	25.0	65.0	30.0	60.0	L	left	0.50317500002	13753.0
n/a	n/a	h6	35.0	4.0	LH	30.0	62.0	30.0	60.0	X	right	0.765240000037	13815.0
n/a	n/a	h6	35.0	5.0	LH	38.0	58.0	30.0	60.0	X	right	0.100325000007	13873.0
n/a	n/a	h6	35.0	6.0	LH	32.0	69.0	30.0	60.0	X	right	0.0752249999787	13942.0
n/a	n/a	h6	35.0	7.0	LH	38.0	65.0	30.0	60.0	X	right	0.0677100000321	14007.0
n/a	n/a	h6	35.0	8.0	LH	40.0	48.0	30.0	60.0	X	right	0.120794999995	14055.0
n/a	n/a	h6	35.0	9.0	LH	18.0	68.0	30.0	60.0	X	right	0.31626500003	14123.0
n/a	n/a	h1	36.0	0.0	HL	70.0	46.0	60.0	40.0	R	right	0.250490000006	14169.0
n/a	n/a	h1	36.0	1.0	HL	54.0	36.0	60.0	40.0	R	right	0.251404999988	14205.0
n/a	n/a	h1	36.0	2.0	HL	46.0	26.0	60.0	40.0	R	right	0.384655000002	14231.0
n/a	n/a	h1	36.0	3.0	HL	68.0	32.0	60.0	40.0	L	left	0.618369999982	14299.0
n/a	n/a	h1	36.0	4.0	HL	54.0	37.0	60.0	40.0	X	left	0.550174999982	14353.0
n/a	n/a	h1	37.0	0.0	LH	51.0	75.0	48.0	60.0	R	right	0.184745000035	14428.0
n/a	n/a	h1	37.0	1.0	LH	58.0	57.0	48.0	60.0	R	right	0.202220000036	14485.0
n/a	n/a	h1	37.0	2.0	LH	46.0	58.0	48.0	60.0	L	left	0.318350000016	14531.0
n/a	n/a	h1	37.0	3.0	LH	40.0	48.0	48.0	60.0	R	right	0.136339999968	14579.0
n/a	n/a	h1	37.0	4.0	LH	42.0	54.0	48.0	60.0	X	right	0.416704999981	14633.0
n/a	n/a	h6	38.0	0.0	HL	77.0	45.0	70.0	40.0	L	left	0.267914999975	14710.0
n/a	n/a	h6	38.0	1.0	HL	68.0	29.0	70.0	40.0	L	left	0.218720000004	14778.0
n/a	n/a	h6	38.0	2.0	HL	71.0	27.0	70.0	40.0	L	left	0.182870000019	14849.0
n/a	n/a	h6	38.0	3.0	HL	82.0	35.0	70.0	40.0	R	right	0.374374999956	14884.0
n/a	n/a	h6	38.0	4.0	HL	64.0	43.0	70.0	40.0	X	left	0.223414999957	14948.0
n/a	n/a	h6	38.0	5.0	HL	56.0	43.0	70.0	40.0	X	left	0.0179299999727	15004.0
n/a	n/a	h6	38.0	6.0	HL	73.0	47.0	70.0	40.0	X	left	0.0175399999716	15077.0
n/a	n/a	h6	38.0	7.0	HL	80.0	40.0	70.0	40.0	X	left	0.417414999974	15157.0
n/a	n/a	h6	38.0	8.0	HL	71.0	44.0	70.0	40.0	X	left	0.0338599999668	15228.0
n/a	n/a	h6	38.0	9.0	HL	83.0	48.0	70.0	40.0	X	left	0.0199349999893	15311.0
n/a	n/a	h1	39.0	0.0	HL	39.0	32.0	44.0	40.0	L	left	0.190239999967	15350.0
n/a	n/a	h1	39.0	1.0	HL	49.0	52.0	44.0	40.0	L	left	0.184609999997	15399.0
n/a	n/a	h1	39.0	2.0	HL	39.0	32.0	44.0	40.0	L	left	0.0524100000039	15438.0
n/a	n/a	h1	39.0	3.0	HL	36.0	47.0	44.0	40.0	R	right	0.30111	15485.0
n/a	n/a	h1	39.0	4.0	HL	55.0	46.0	44.0	40.0	X	right	0.551429999992	15531.0
n/a	n/a	h6	40.0	0.0	HL	36.0	38.0	40.0	28.0	L	left	0.401270000031	15567.0
n/a	n/a	h6	40.0	1.0	HL	37.0	27.0	40.0	28.0	L	left	0.324315000034	15604.0
n/a	n/a	h6	40.0	2.0	HL	33.0	23.0	40.0	28.0	R	right	0.288549999997	15627.0
n/a	n/a	h6	40.0	3.0	HL	44.0	40.0	40.0	28.0	R	right	0.450980000023	15667.0
n/a	n/a	h6	40.0	4.0	HL	22.0	36.0	40.0	28.0	X	left	0.307979999983	15689.0
n/a	n/a	h6	40.0	5.0	HL	47.0	30.0	40.0	28.0	X	left	0.201104999986	15736.0
n/a	n/a	h6	40.0	6.0	HL	31.0	16.0	40.0	28.0	X	right	0.334745	15752.0
n/a	n/a	h6	40.0	7.0	HL	47.0	34.0	40.0	28.0	X	left	0.239570000034	15799.0
n/a	n/a	h6	40.0	8.0	HL	39.0	20.0	40.0	28.0	X	left	0.0831149999867	15838.0
n/a	n/a	h6	40.0	9.0	HL	37.0	36.0	40.0	28.0	X	left	0.0845799999661	15875.0
n/a	n/a	h1	41.0	0.0	LH	65.0	58.0	52.0	60.0	L	left	0.185630000022	15940.0
n/a	n/a	h1	41.0	1.0	LH	49.0	64.0	52.0	60.0	L	left	0.301325000008	15989.0
n/a	n/a	h1	41.0	2.0	LH	52.0	73.0	52.0	60.0	R	right	0.334809999971	16062.0
n/a	n/a	h1	41.0	3.0	LH	52.0	64.0	52.0	60.0	R	right	0.300554999965	16126.0
n/a	n/a	h1	41.0	4.0	LH	52.0	62.0	52.0	60.0	X	right	0.305170000007	16188.0
n/a	n/a	h1	42.0	0.0	LH	43.0	75.0	40.0	70.0	R	right	0.185094999964	16263.0
n/a	n/a	h1	42.0	1.0	LH	30.0	80.0	40.0	70.0	R	right	0.261200000008	16343.0
n/a	n/a	h1	42.0	2.0	LH	40.0	70.0	40.0	70.0	R	right	0.151045000006	16413.0
n/a	n/a	h1	42.0	3.0	LH	22.0	65.0	40.0	70.0	L	left	0.708744999953	16435.0
n/a	n/a	h1	42.0	4.0	LH	44.0	86.0	40.0	70.0	X	right	0.201170000015	16521.0
n/a	n/a	h1	43.0	0.0	LH	32.0	50.0	36.0	40.0	L	left	0.618949999975	16553.0
n/a	n/a	h1	43.0	1.0	LH	39.0	44.0	36.0	40.0	R	right	0.132655000023	16597.0
n/a	n/a	h1	43.0	2.0	LH	27.0	48.0	36.0	40.0	L	left	0.10129999998	16624.0
n/a	n/a	h1	43.0	3.0	LH	44.0	31.0	36.0	40.0	L	left	0.518199999991	16668.0
n/a	n/a	h1	43.0	4.0	LH	42.0	45.0	36.0	40.0	X	right	2.53787	16713.0
n/a	n/a	h1	44.0	0.0	HL	58.0	57.0	64.0	60.0	L	left	0.151104999997	16771.0
n/a	n/a	h1	44.0	1.0	HL	68.0	62.0	64.0	60.0	R	right	0.135060000001	16833.0
n/a	n/a	h1	44.0	2.0	HL	61.0	75.0	64.0	60.0	L	left	0.107819999976	16894.0
n/a	n/a	h1	44.0	3.0	HL	44.0	57.0	64.0	60.0	R	right	0.0842249999987	16951.0
n/a	n/a	h1	44.0	4.0	HL	65.0	64.0	64.0	60.0	X	right	0.667350000003	17015.0
n/a	n/a	h1	45.0	0.0	HL	75.0	55.0	72.0	60.0	L	left	0.284749999992	17090.0
n/a	n/a	h1	45.0	1.0	HL	69.0	58.0	72.0	60.0	R	right	0.134535000019	17148.0
n/a	n/a	h1	45.0	2.0	HL	62.0	75.0	72.0	60.0	L	left	0.0502799999667	17210.0
n/a	n/a	h1	45.0	3.0	HL	69.0	50.0	72.0	60.0	R	right	0.501690000005	17260.0
n/a	n/a	h1	45.0	4.0	HL	60.0	48.0	72.0	60.0	X	left	0.551555000013	17320.0
n/a	n/a	h6	46.0	0.0	LH	72.0	71.0	60.0	64.0	L	left	0.25080499996	17392.0
n/a	n/a	h6	46.0	1.0	LH	49.0	87.0	60.0	64.0	L	left	0.616965000052	17441.0
n/a	n/a	h6	46.0	2.0	LH	61.0	70.0	60.0	64.0	R	right	0.391940000001	17511.0
n/a	n/a	h6	46.0	3.0	LH	61.0	76.0	60.0	64.0	R	right	0.318874999997	17587.0
n/a	n/a	h6	46.0	4.0	LH	70.0	72.0	60.0	64.0	X	right	1.18414500001	17659.0
n/a	n/a	h6	46.0	5.0	LH	69.0	65.0	60.0	64.0	X	right	0.0518349999911	17724.0
n/a	n/a	h6	46.0	6.0	LH	60.0	52.0	60.0	64.0	X	right	0.835305000015	17776.0
n/a	n/a	h6	46.0	7.0	LH	63.0	61.0	60.0	64.0	X	left	0.11712000001	17839.0
n/a	n/a	h6	46.0	8.0	LH	58.0	65.0	60.0	64.0	X	right	0.10116000002	17904.0
n/a	n/a	h6	46.0	9.0	LH	54.0	59.0	60.0	64.0	X	right	0.137849999999	17963.0
n/a	n/a	h1	47.0	0.0	HL	65.0	59.0	68.0	60.0	L	left	0.255769999989	18028.0
n/a	n/a	h1	47.0	1.0	HL	57.0	58.0	68.0	60.0	R	right	0.352064999985	18086.0
n/a	n/a	h1	47.0	2.0	HL	54.0	48.0	68.0	60.0	L	left	0.368560000032	18140.0
n/a	n/a	h1	47.0	3.0	HL	70.0	61.0	68.0	60.0	L	left	1.42742999998	18210.0
n/a	n/a	h1	47.0	4.0	HL	67.0	45.0	68.0	60.0	X	left	0.466734999965	18277.0
n/a	n/a	h1	48.0	0.0	HL	67.0	22.0	60.0	30.0	R	right	0.33554499998	18299.0
n/a	n/a	h1	48.0	1.0	HL	55.0	38.0	60.0	30.0	R	right	0.26767999999	18337.0
n/a	n/a	h1	48.0	2.0	HL	83.0	34.0	60.0	30.0	R	right	0.322345000051	18371.0
n/a	n/a	h1	48.0	3.0	HL	67.0	27.0	60.0	30.0	L	left	0.368610000005	18438.0
n/a	n/a	h1	48.0	4.0	HL	70.0	16.0	60.0	30.0	X	left	0.934420000005	18508.0
n/a	n/a	h6	49.0	0.0	HL	77.0	45.0	70.0	40.0	L	left	0.285514999996	18585.0
n/a	n/a	h6	49.0	1.0	HL	68.0	29.0	70.0	40.0	L	left	0.456835000019	18653.0
n/a	n/a	h6	49.0	2.0	HL	71.0	27.0	70.0	40.0	L	left	0.502770000021	18724.0
n/a	n/a	h6	49.0	3.0	HL	82.0	35.0	70.0	40.0	R	right	0.267999999982	18759.0
n/a	n/a	h6	49.0	4.0	HL	72.0	23.0	70.0	40.0	X	left	0.886120000039	18831.0
n/a	n/a	h6	49.0	5.0	HL	74.0	31.0	70.0	40.0	X	left	0.471944999998	18905.0
n/a	n/a	h6	49.0	6.0	HL	86.0	53.0	70.0	40.0	X	right	0.783844999969	18958.0
n/a	n/a	h6	49.0	7.0	HL	68.0	32.0	70.0	40.0	X	left	0.165390000038	19026.0
n/a	n/a	h6	49.0	8.0	HL	64.0	27.0	70.0	40.0	X	left	0.134864999971	19090.0
n/a	n/a	h6	49.0	9.0	HL	67.0	43.0	70.0	40.0	X	left	0.125210000027	19157.0
n/a	n/a	h6	50.0	0.0	HL	96.0	65.0	90.0	60.0	L	left	0.40399999998	19253.0
n/a	n/a	h6	50.0	1.0	HL	88.0	57.0	90.0	60.0	L	left	0.384640000004	19341.0
n/a	n/a	h6	50.0	2.0	HL	84.0	59.0	90.0	60.0	R	right	0.487649999966	19400.0
n/a	n/a	h6	50.0	3.0	HL	76.0	67.0	90.0	60.0	R	right	0.669105000037	19467.0
n/a	n/a	h6	50.0	4.0	HL	89.0	66.0	90.0	60.0	X	right	1.16877500003	19533.0
n/a	n/a	h6	50.0	5.0	HL	99.0	61.0	90.0	60.0	X	left	1.52270999999	19632.0
n/a	n/a	h6	50.0	6.0	HL	84.0	67.0	90.0	60.0	X	left	0.0818749999744	19716.0
n/a	n/a	h6	50.0	7.0	HL	91.0	70.0	90.0	60.0	X	left	0.0846599999932	19807.0
n/a	n/a	h6	50.0	8.0	HL	85.0	51.0	90.0	60.0	X	left	0.56753499998	19892.0
n/a	n/a	h6	50.0	9.0	HL	83.0	72.0	90.0	60.0	X	left	0.120334999985	19975.0
n/a	n/a	h6	51.0	0.0	HL	55.0	61.0	60.0	52.0	R	right	0.208465000032	20036.0
n/a	n/a	h6	51.0	1.0	HL	60.0	43.0	60.0	52.0	L	left	0.0685550000053	20096.0
n/a	n/a	h6	51.0	2.0	HL	65.0	62.0	60.0	52.0	L	left	0.285134999955	20161.0
n/a	n/a	h6	51.0	3.0	HL	53.0	67.0	60.0	52.0	R	right	0.201005000039	20228.0
n/a	n/a	h6	51.0	4.0	HL	52.0	57.0	60.0	52.0	X	left	0.134459999972	20280.0
n/a	n/a	h6	51.0	5.0	HL	78.0	49.0	60.0	52.0	X	right	0.58520999999	20329.0
n/a	n/a	h6	51.0	6.0	HL	44.0	51.0	60.0	52.0	X	left	1.33426999999	20373.0
n/a	n/a	h6	51.0	7.0	HL	59.0	44.0	60.0	52.0	X	left	0.253239999991	20432.0
n/a	n/a	h6	51.0	8.0	HL	60.0	42.0	60.0	52.0	X	left	0.124595000001	20492.0
n/a	n/a	h6	51.0	9.0	HL	59.0	52.0	60.0	52.0	X	left	0.0672800000175	20551.0
n/a	n/a	h6	52.0	0.0	LH	40.0	38.0	40.0	48.0	L	left	0.201954999997	20591.0
n/a	n/a	h6	52.0	1.0	LH	37.0	44.0	40.0	48.0	L	left	0.335634999967	20628.0
n/a	n/a	h6	52.0	2.0	LH	60.0	44.0	40.0	48.0	R	right	0.452854999981	20672.0
n/a	n/a	h6	52.0	3.0	LH	42.0	52.0	40.0	48.0	R	right	0.284540000022	20724.0
n/a	n/a	h6	52.0	4.0	LH	31.0	59.0	40.0	48.0	X	right	0.455295000051	20783.0
n/a	n/a	h6	52.0	5.0	LH	39.0	40.0	40.0	48.0	X	right	0.417950000032	20823.0
n/a	n/a	h6	52.0	6.0	LH	43.0	47.0	40.0	48.0	X	right	0.135515000031	20870.0
n/a	n/a	h6	52.0	7.0	LH	50.0	47.0	40.0	48.0	X	left	0.139120000007	20920.0
n/a	n/a	h6	52.0	8.0	LH	55.0	41.0	40.0	48.0	X	right	0.206665000005	20961.0
n/a	n/a	h6	52.0	9.0	LH	34.0	45.0	40.0	48.0	X	left	0.485485000012	20995.0
n/a	n/a	h6	53.0	0.0	LH	19.0	45.0	30.0	60.0	R	right	0.217049999977	21040.0
n/a	n/a	h6	53.0	1.0	LH	39.0	62.0	30.0	60.0	L	left	0.0384299999569	21079.0
n/a	n/a	h6	53.0	2.0	LH	24.0	65.0	30.0	60.0	L	left	0.222505000012	21103.0
n/a	n/a	h6	53.0	3.0	LH	42.0	55.0	30.0	60.0	L	left	1.00603500003	21145.0
n/a	n/a	h6	53.0	4.0	LH	37.0	72.0	30.0	60.0	X	right	0.525120000006	21217.0
n/a	n/a	h6	53.0	5.0	LH	31.0	61.0	30.0	60.0	X	right	0.20994000003	21278.0
n/a	n/a	h6	53.0	6.0	LH	33.0	50.0	30.0	60.0	X	right	0.0993500000332	21328.0
n/a	n/a	h6	53.0	7.0	LH	29.0	88.0	30.0	60.0	X	right	0.086484999978	21416.0
n/a	n/a	h6	53.0	8.0	LH	11.0	62.0	30.0	60.0	X	right	0.151130000013	21478.0
n/a	n/a	h6	53.0	9.0	LH	44.0	70.0	30.0	60.0	X	right	0.0851850000327	21548.0
n/a	n/a	h6	54.0	0.0	HL	36.0	38.0	40.0	28.0	L	left	0.301380000019	21584.0
n/a	n/a	h6	54.0	1.0	HL	37.0	27.0	40.0	28.0	L	left	0.201849999954	21621.0
n/a	n/a	h6	54.0	2.0	HL	33.0	23.0	40.0	28.0	R	right	0.284304999979	21644.0
n/a	n/a	h6	54.0	3.0	HL	44.0	40.0	40.0	28.0	R	right	0.217720000015	21684.0
n/a	n/a	h6	54.0	4.0	HL	27.0	30.0	40.0	28.0	X	right	2.202185	21714.0
n/a	n/a	h6	54.0	5.0	HL	41.0	28.0	40.0	28.0	X	left	0.396350000054	21755.0
n/a	n/a	h6	54.0	6.0	HL	45.0	35.0	40.0	28.0	X	right	0.735229999991	21790.0
n/a	n/a	h6	54.0	7.0	HL	44.0	28.0	40.0	28.0	X	left	0.309110000031	21834.0
n/a	n/a	h6	54.0	8.0	HL	42.0	30.0	40.0	28.0	X	left	0.117659999989	21876.0
n/a	n/a	h6	54.0	9.0	HL	45.0	31.0	40.0	28.0	X	left	0.0211000000127	21921.0
n/a	n/a	h1	55.0	0.0	LH	40.0	64.0	40.0	52.0	L	left	0.369285000023	21961.0
n/a	n/a	h1	55.0	1.0	LH	44.0	52.0	40.0	52.0	L	left	0.284615000011	22005.0
n/a	n/a	h1	55.0	2.0	LH	40.0	48.0	40.0	52.0	R	right	0.886249999981	22053.0
n/a	n/a	h1	55.0	3.0	LH	58.0	62.0	40.0	52.0	L	left	0.555594999983	22111.0
n/a	n/a	h1	55.0	4.0	LH	34.0	58.0	40.0	52.0	X	left	0.484400000016	22145.0
n/a	n/a	h6	56.0	0.0	HL	60.0	56.0	60.0	52.0	R	right	0.268419999979	22201.0
n/a	n/a	h6	56.0	1.0	HL	67.0	49.0	60.0	52.0	L	left	0.0670500000124	22268.0
n/a	n/a	h6	56.0	2.0	HL	67.0	51.0	60.0	52.0	R	right	0.318075000017	22319.0
n/a	n/a	h6	56.0	3.0	HL	69.0	45.0	60.0	52.0	R	right	0.437080000003	22364.0
n/a	n/a	h6	56.0	4.0	HL	70.0	78.0	60.0	52.0	X	left	0.539219999977	22434.0
n/a	n/a	h6	56.0	5.0	HL	55.0	45.0	60.0	52.0	X	left	0.131779999996	22489.0
n/a	n/a	h6	56.0	6.0	HL	75.0	51.0	60.0	52.0	X	left	0.118454999989	22564.0
n/a	n/a	h6	56.0	7.0	HL	66.0	67.0	60.0	52.0	X	left	0.284439999959	22630.0
n/a	n/a	h6	56.0	8.0	HL	61.0	59.0	60.0	52.0	X	left	0.16763500002	22691.0
n/a	n/a	h6	56.0	9.0	HL	60.0	63.0	60.0	52.0	X	left	0.232175000012	22751.0
n/a	n/a	h6	57.0	0.0	HL	39.0	36.0	40.0	36.0	R	right	0.504700000049	22787.0
n/a	n/a	h6	57.0	1.0	HL	31.0	21.0	40.0	36.0	R	right	0.702029999986	22808.0
n/a	n/a	h6	57.0	2.0	HL	46.0	27.0	40.0	36.0	L	left	0.284519999987	22854.0
n/a	n/a	h6	57.0	3.0	HL	26.0	50.0	40.0	36.0	L	left	1.09327999997	22880.0
n/a	n/a	h6	57.0	4.0	HL	46.0	20.0	40.0	36.0	X	right	0.502075000026	22900.0
n/a	n/a	h6	57.0	5.0	HL	45.0	22.0	40.0	36.0	X	left	1.66731500003	22945.0
n/a	n/a	h6	57.0	6.0	HL	31.0	42.0	40.0	36.0	X	left	0.442370000004	22976.0
n/a	n/a	h6	57.0	7.0	HL	40.0	31.0	40.0	36.0	X	left	0.101280000003	23016.0
n/a	n/a	h6	57.0	8.0	HL	49.0	43.0	40.0	36.0	X	left	0.184275000007	23065.0
n/a	n/a	h6	57.0	9.0	HL	35.0	38.0	40.0	36.0	X	left	0.134760000044	23100.0
n/a	n/a	h1	58.0	0.0	HL	58.0	57.0	64.0	60.0	L	left	0.368095000042	23158.0
n/a	n/a	h1	58.0	1.0	HL	68.0	62.0	64.0	60.0	R	right	0.701585000032	23220.0
n/a	n/a	h1	58.0	2.0	HL	61.0	75.0	64.0	60.0	L	left	0.234625000041	23281.0
n/a	n/a	h1	58.0	3.0	HL	44.0	57.0	64.0	60.0	R	right	0.117665000027	23338.0
n/a	n/a	h1	58.0	4.0	HL	75.0	52.0	64.0	60.0	X	left	1.25459500001	23413.0
n/a	n/a	h6	59.0	0.0	LH	19.0	45.0	30.0	60.0	R	right	0.468359999999	23458.0
n/a	n/a	h6	59.0	1.0	LH	39.0	62.0	30.0	60.0	L	left	0.0678199999966	23497.0
n/a	n/a	h6	59.0	2.0	LH	24.0	65.0	30.0	60.0	L	left	0.368025000033	23521.0
n/a	n/a	h6	59.0	3.0	LH	42.0	55.0	30.0	60.0	L	left	0.268289999978	23563.0
n/a	n/a	h6	59.0	4.0	LH	40.0	55.0	30.0	60.0	X	right	1.03924999997	23618.0
n/a	n/a	h6	59.0	5.0	LH	23.0	71.0	30.0	60.0	X	right	0.668624999991	23689.0
n/a	n/a	h6	59.0	6.0	LH	25.0	65.0	30.0	60.0	X	right	0.220655000012	23754.0
n/a	n/a	h6	59.0	7.0	LH	28.0	55.0	30.0	60.0	X	right	0.0678099999786	23809.0
n/a	n/a	h6	59.0	8.0	LH	17.0	65.0	30.0	60.0	X	right	0.0666999999667	23874.0
n/a	n/a	h6	59.0	9.0	LH	30.0	64.0	30.0	60.0	X	right	0.0385450000176	23938.0
n/a	n/a	h6	60.0	0.0	LH	69.0	46.0	56.0	60.0	R	right	0.0677800000412	23984.0
n/a	n/a	h6	60.0	1.0	LH	65.0	53.0	56.0	60.0	L	left	0.023499999952	24049.0
n/a	n/a	h6	60.0	2.0	LH	57.0	59.0	56.0	60.0	L	left	0.287264999992	24106.0
n/a	n/a	h6	60.0	3.0	LH	62.0	60.0	56.0	60.0	L	left	0.317120000022	24168.0
n/a	n/a	h6	60.0	4.0	LH	57.0	51.0	56.0	60.0	X	left	1.1188	24225.0
n/a	n/a	h6	60.0	5.0	LH	58.0	50.0	56.0	60.0	X	left	0.117849999981	24283.0
n/a	n/a	h6	60.0	6.0	LH	54.0	48.0	56.0	60.0	X	left	0.517950000009	24337.0
n/a	n/a	h6	60.0	7.0	LH	64.0	68.0	56.0	60.0	X	left	0.0494450000115	24401.0
n/a	n/a	h6	60.0	8.0	LH	55.0	54.0	56.0	60.0	X	left	0.0512699999963	24456.0
n/a	n/a	h6	60.0	9.0	LH	44.0	62.0	56.0	60.0	X	left	0.0570750000188	24500.0
n/a	n/a	h1	61.0	0.0	HL	57.0	35.0	60.0	40.0	L	left	0.306229999987	24557.0
n/a	n/a	h1	61.0	1.0	HL	63.0	50.0	60.0	40.0	R	right	0.192450000031	24607.0
n/a	n/a	h1	61.0	2.0	HL	57.0	53.0	60.0	40.0	L	left	0.0845050000353	24664.0
n/a	n/a	h1	61.0	3.0	HL	54.0	48.0	60.0	40.0	R	right	0.551340000005	24712.0
n/a	n/a	h1	61.0	4.0	HL	58.0	42.0	60.0	40.0	X	left	0.392735000001	24770.0
n/a	n/a	h6	62.0	0.0	HL	60.0	56.0	60.0	52.0	R	right	0.268075000029	24826.0
n/a	n/a	h6	62.0	1.0	HL	67.0	49.0	60.0	52.0	L	left	0.0679900000105	24893.0
n/a	n/a	h6	62.0	2.0	HL	67.0	51.0	60.0	52.0	R	right	0.101079999993	24944.0
n/a	n/a	h6	62.0	3.0	HL	69.0	45.0	60.0	52.0	R	right	0.285039999988	24989.0
n/a	n/a	h6	62.0	4.0	HL	57.0	49.0	60.0	52.0	X	right	0.484794999997	25038.0
n/a	n/a	h6	62.0	5.0	HL	62.0	39.0	60.0	52.0	X	left	0.367934999987	25100.0
n/a	n/a	h6	62.0	6.0	HL	42.0	47.0	60.0	52.0	X	left	0.0841350000119	25142.0
n/a	n/a	h6	62.0	7.0	HL	69.0	36.0	60.0	52.0	X	left	0.117609999957	25211.0
n/a	n/a	h6	62.0	8.0	HL	62.0	53.0	60.0	52.0	X	left	0.0676349999849	25273.0
n/a	n/a	h6	62.0	9.0	HL	58.0	56.0	60.0	52.0	X	left	0.0842249999987	25331.0
n/a	n/a	h6	63.0	0.0	LH	53.0	77.0	60.0	80.0	L	left	0.14665499999	25384.0
n/a	n/a	h6	63.0	1.0	LH	60.0	78.0	60.0	80.0	L	left	0.101375000027	25444.0
n/a	n/a	h6	63.0	2.0	LH	58.0	68.0	60.0	80.0	L	left	0.351395000005	25502.0
n/a	n/a	h6	63.0	3.0	LH	57.0	67.0	60.0	80.0	R	right	0.43306000001	25569.0
n/a	n/a	h6	63.0	4.0	LH	64.0	82.0	60.0	80.0	X	right	1.93530499999	25651.0
n/a	n/a	h6	63.0	5.0	LH	65.0	89.0	60.0	80.0	X	right	0.321484999964	25740.0
n/a	n/a	h6	63.0	6.0	LH	58.0	72.0	60.0	80.0	X	right	0.0509099999908	25812.0
n/a	n/a	h6	63.0	7.0	LH	56.0	73.0	60.0	80.0	X	right	0.0509650000022	25885.0
n/a	n/a	h6	63.0	8.0	LH	59.0	91.0	60.0	80.0	X	right	0.0342350000283	25976.0
n/a	n/a	h6	63.0	9.0	LH	48.0	81.0	60.0	80.0	X	right	0.118134999997	26057.0
n/a	n/a	h1	64.0	0.0	LH	25.0	38.0	32.0	40.0	L	left	0.300600000017	26082.0
n/a	n/a	h1	64.0	1.0	LH	29.0	57.0	32.0	40.0	L	left	0.379145000014	26111.0
n/a	n/a	h1	64.0	2.0	LH	44.0	23.0	32.0	40.0	R	right	0.257029999979	26134.0
n/a	n/a	h1	64.0	3.0	LH	36.0	31.0	32.0	40.0	L	left	0.272170000011	26170.0
n/a	n/a	h1	64.0	4.0	LH	14.0	47.0	32.0	40.0	X	left	0.450290000008	26184.0
n/a	n/a	h6	65.0	0.0	LH	44.0	39.0	40.0	48.0	R	right	0.168464999995	26223.0
n/a	n/a	h6	65.0	1.0	LH	50.0	55.0	40.0	48.0	R	right	0.233279999986	26278.0
n/a	n/a	h6	65.0	2.0	LH	53.0	56.0	40.0	48.0	L	left	0.568299999984	26331.0
n/a	n/a	h6	65.0	3.0	LH	49.0	58.0	40.0	48.0	R	right	0.384885000007	26389.0
n/a	n/a	h6	65.0	4.0	LH	37.0	38.0	40.0	48.0	X	right	6.29108	26427.0
n/a	n/a	h6	65.0	5.0	LH	46.0	28.0	40.0	48.0	X	right	0.751475000056	26455.0
n/a	n/a	h6	65.0	6.0	LH	44.0	50.0	40.0	48.0	X	left	0.388264999958	26499.0
n/a	n/a	h6	65.0	7.0	LH	51.0	64.0	40.0	48.0	X	left	0.251489999995	26550.0
n/a	n/a	h6	65.0	8.0	LH	36.0	56.0	40.0	48.0	X	left	0.183475000027	26586.0
n/a	n/a	h6	65.0	9.0	LH	47.0	42.0	40.0	48.0	X	left	0.108359999955	26633.0
n/a	n/a	h6	66.0	0.0	HL	28.0	15.0	40.0	20.0	L	left	0.21795000002	26661.0
n/a	n/a	h6	66.0	1.0	HL	53.0	16.0	40.0	20.0	L	left	0.150109999988	26714.0
n/a	n/a	h6	66.0	2.0	HL	55.0	28.0	40.0	20.0	L	left	0.201509999984	26769.0
n/a	n/a	h6	66.0	3.0	HL	53.0	28.0	40.0	20.0	R	right	0.300709999981	26797.0
n/a	n/a	h6	66.0	4.0	HL	40.0	24.0	40.0	20.0	X	left	0.323865000042	26837.0
n/a	n/a	h6	66.0	5.0	HL	52.0	24.0	40.0	20.0	X	left	0.143225000007	26889.0
n/a	n/a	h6	66.0	6.0	HL	34.0	16.0	40.0	20.0	X	left	0.284624999971	26923.0
n/a	n/a	h6	66.0	7.0	HL	24.0	24.0	40.0	20.0	X	left	0.116894999985	26947.0
n/a	n/a	h6	66.0	8.0	HL	40.0	23.0	40.0	20.0	X	left	0.133284999989	26987.0
n/a	n/a	h6	66.0	9.0	HL	45.0	21.0	40.0	20.0	X	left	0.357574999973	27032.0
n/a	n/a	h6	67.0	0.0	LH	60.0	79.0	60.0	72.0	R	right	0.258235000016	27111.0
n/a	n/a	h6	67.0	1.0	LH	57.0	66.0	60.0	72.0	R	right	0.344459999993	27177.0
n/a	n/a	h6	67.0	2.0	LH	64.0	65.0	60.0	72.0	L	left	0.236199999985	27241.0
n/a	n/a	h6	67.0	3.0	LH	63.0	69.0	60.0	72.0	R	right	0.351945000002	27310.0
n/a	n/a	h6	67.0	4.0	LH	65.0	75.0	60.0	72.0	X	left	0.184735000017	27375.0
n/a	n/a	h6	67.0	5.0	LH	52.0	77.0	60.0	72.0	X	right	0.871125000005	27452.0
n/a	n/a	h6	67.0	6.0	LH	73.0	86.0	60.0	72.0	X	right	0.902189999993	27538.0
n/a	n/a	h6	67.0	7.0	LH	66.0	80.0	60.0	72.0	X	right	0.0175149999559	27618.0
n/a	n/a	h6	67.0	8.0	LH	57.0	73.0	60.0	72.0	X	right	0.0510399999912	27691.0
n/a	n/a	h6	67.0	9.0	LH	60.0	75.0	60.0	72.0	X	right	0.0347099999781	27766.0
n/a	n/a	h1	68.0	0.0	LH	45.0	56.0	40.0	60.0	R	right	0.318440000003	27822.0
n/a	n/a	h1	68.0	1.0	LH	29.0	52.0	40.0	60.0	R	right	0.356680000026	27874.0
n/a	n/a	h1	68.0	2.0	LH	47.0	60.0	40.0	60.0	R	right	0.167850000027	27934.0
n/a	n/a	h1	68.0	3.0	LH	36.0	57.0	40.0	60.0	L	left	0.241009999998	27970.0
n/a	n/a	h1	68.0	4.0	LH	41.0	51.0	40.0	60.0	X	right	0.501459999999	28021.0
n/a	n/a	h6	69.0	0.0	LH	25.0	48.0	20.0	40.0	L	left	0.293275000004	28046.0
n/a	n/a	h6	69.0	1.0	LH	20.0	48.0	20.0	40.0	R	right	0.0677199999918	28094.0
n/a	n/a	h6	69.0	2.0	LH	8.0	28.0	20.0	40.0	R	right	0.334659999993	28122.0
n/a	n/a	h6	69.0	3.0	LH	22.0	33.0	20.0	40.0	L	left	0.118329999968	28144.0
n/a	n/a	h6	69.0	4.0	LH	22.0	50.0	20.0	40.0	X	right	0.701464999991	28194.0
n/a	n/a	h6	69.0	5.0	LH	24.0	35.0	20.0	40.0	X	right	0.00151500001084	28229.0
n/a	n/a	h6	69.0	6.0	LH	14.0	40.0	20.0	40.0	X	right	0.00102000002516	28269.0
n/a	n/a	h6	69.0	7.0	LH	27.0	49.0	20.0	40.0	X	right	0.00235999998404	28318.0
n/a	n/a	h6	69.0	8.0	LH	31.0	37.0	20.0	40.0	X	right	0.451379999984	28355.0
n/a	n/a	h6	69.0	9.0	LH	26.0	57.0	20.0	40.0	X	right	0.0343149999972	28412.0
n/a	n/a	h1	70.0	0.0	LH	32.0	76.0	40.0	60.0	L	left	0.167934999976	28444.0
n/a	n/a	h1	70.0	1.0	LH	37.0	65.0	40.0	60.0	R	right	0.319030000013	28509.0
n/a	n/a	h1	70.0	2.0	LH	46.0	68.0	40.0	60.0	L	left	0.101224999991	28555.0
n/a	n/a	h1	70.0	3.0	LH	37.0	69.0	40.0	60.0	R	right	0.168255000026	28624.0
n/a	n/a	h1	70.0	4.0	LH	31.0	55.0	40.0	60.0	X	right	0.0512600000366	28679.0
n/a	n/a	h1	71.0	0.0	LH	48.0	67.0	40.0	70.0	R	right	0.201080000028	28746.0
n/a	n/a	h1	71.0	1.0	LH	47.0	62.0	40.0	70.0	L	left	0.0722250000108	28793.0
n/a	n/a	h1	71.0	2.0	LH	39.0	62.0	40.0	70.0	R	right	0.160495000018	28855.0
n/a	n/a	h1	71.0	3.0	LH	50.0	65.0	40.0	70.0	L	left	0.167985000007	28905.0
n/a	n/a	h1	71.0	4.0	LH	31.0	64.0	40.0	70.0	X	right	0.0519499999937	28969.0
n/a	n/a	h1	72.0	0.0	LH	32.0	50.0	36.0	40.0	L	left	0.188689999981	29001.0
n/a	n/a	h1	72.0	1.0	LH	39.0	44.0	36.0	40.0	R	right	0.0843999999925	29045.0
n/a	n/a	h1	72.0	2.0	LH	27.0	48.0	36.0	40.0	L	left	0.0509300000267	29072.0
n/a	n/a	h1	72.0	3.0	LH	44.0	31.0	36.0	40.0	L	left	0.471900000004	29116.0
n/a	n/a	h1	72.0	4.0	LH	32.0	33.0	36.0	40.0	X	right	1.77364000003	29149.0
n/a	n/a	h1	73.0	0.0	LH	31.0	44.0	28.0	40.0	R	right	0.17565499997	29193.0
n/a	n/a	h1	73.0	1.0	LH	27.0	39.0	28.0	40.0	L	left	0.183870000008	29220.0
n/a	n/a	h1	73.0	2.0	LH	25.0	54.0	28.0	40.0	R	right	0.217854999995	29274.0
n/a	n/a	h1	73.0	3.0	LH	29.0	30.0	28.0	40.0	L	left	0.836149999988	29303.0
n/a	n/a	h1	73.0	4.0	LH	26.0	45.0	28.0	40.0	X	right	0.368289999955	29348.0
n/a	n/a	h1	74.0	0.0	LH	51.0	75.0	48.0	60.0	R	right	0.20153000002	29423.0
n/a	n/a	h1	74.0	1.0	LH	58.0	57.0	48.0	60.0	R	right	0.874659999972	29480.0
n/a	n/a	h1	74.0	2.0	LH	46.0	58.0	48.0	60.0	L	left	0.587774999964	29526.0
n/a	n/a	h1	74.0	3.0	LH	40.0	48.0	48.0	60.0	R	right	0.268159999978	29574.0
n/a	n/a	h1	74.0	4.0	LH	29.0	51.0	48.0	60.0	X	right	0.25105999998	29625.0
n/a	n/a	h1	75.0	0.0	LH	66.0	43.0	56.0	60.0	L	left	0.386004999978	29691.0
n/a	n/a	h1	75.0	1.0	LH	33.0	67.0	56.0	60.0	R	right	0.324170000036	29758.0
n/a	n/a	h1	75.0	2.0	LH	42.0	59.0	56.0	60.0	L	left	0.151014999952	29800.0
n/a	n/a	h1	75.0	3.0	LH	55.0	64.0	56.0	60.0	R	right	0.451165000035	29864.0
n/a	n/a	h1	75.0	4.0	LH	58.0	59.0	56.0	60.0	X	right	0.301355000003	29923.0
n/a	n/a	h6	76.0	0.0	HL	55.0	61.0	60.0	52.0	R	right	0.184285000025	29984.0
n/a	n/a	h6	76.0	1.0	HL	60.0	43.0	60.0	52.0	L	left	0.0721699999995	30044.0
n/a	n/a	h6	76.0	2.0	HL	65.0	62.0	60.0	52.0	L	left	0.535130000033	30109.0
n/a	n/a	h6	76.0	3.0	HL	53.0	67.0	60.0	52.0	R	right	0.192574999994	30176.0
n/a	n/a	h6	76.0	4.0	HL	61.0	57.0	60.0	52.0	X	left	1.57068999996	30237.0
n/a	n/a	h6	76.0	5.0	HL	59.0	41.0	60.0	52.0	X	right	0.25105999998	30278.0
n/a	n/a	h6	76.0	6.0	HL	42.0	45.0	60.0	52.0	X	right	0.10493000003	30323.0
n/a	n/a	h6	76.0	7.0	HL	60.0	45.0	60.0	52.0	X	left	0.0492999999551	30383.0
n/a	n/a	h6	76.0	8.0	HL	64.0	53.0	60.0	52.0	X	left	0.0363650000072	30447.0
n/a	n/a	h6	76.0	9.0	HL	56.0	38.0	60.0	52.0	X	left	0.0509700000403	30503.0
n/a	n/a	h1	77.0	0.0	LH	65.0	58.0	52.0	60.0	L	left	0.151450000005	30568.0
n/a	n/a	h1	77.0	1.0	LH	49.0	64.0	52.0	60.0	L	left	0.435010000016	30617.0
n/a	n/a	h1	77.0	2.0	LH	52.0	73.0	52.0	60.0	R	right	0.237765000027	30690.0
n/a	n/a	h1	77.0	3.0	LH	52.0	64.0	52.0	60.0	R	right	0.573199999984	30754.0
n/a	n/a	h1	77.0	4.0	LH	57.0	61.0	52.0	60.0	X	right	0.0185499999789	30815.0
n/a	n/a	h6	78.0	0.0	LH	60.0	79.0	60.0	72.0	R	right	0.301604999986	30894.0
n/a	n/a	h6	78.0	1.0	LH	57.0	66.0	60.0	72.0	R	right	0.318710000021	30960.0
n/a	n/a	h6	78.0	2.0	LH	64.0	65.0	60.0	72.0	L	left	0.0673850000021	31024.0
n/a	n/a	h6	78.0	3.0	LH	63.0	69.0	60.0	72.0	R	right	0.0703349999967	31093.0
n/a	n/a	h6	78.0	4.0	LH	67.0	90.0	60.0	72.0	X	right	0.107795000018	31183.0
n/a	n/a	h6	78.0	5.0	LH	56.0	63.0	60.0	72.0	X	right	0.0661449999898	31246.0
n/a	n/a	h6	78.0	6.0	LH	53.0	64.0	60.0	72.0	X	right	0.0676199999871	31310.0
n/a	n/a	h6	78.0	7.0	LH	65.0	72.0	60.0	72.0	X	right	0.000700000033248	31382.0
n/a	n/a	h6	78.0	8.0	LH	54.0	66.0	60.0	72.0	X	right	0.0054999999702	31448.0
n/a	n/a	h6	78.0	9.0	LH	63.0	62.0	60.0	72.0	X	right	0.0673749999842	31510.0
n/a	n/a	h1	79.0	0.0	LH	45.0	56.0	40.0	60.0	R	right	0.300899999973	31566.0
n/a	n/a	h1	79.0	1.0	LH	29.0	52.0	40.0	60.0	R	right	0.323924999975	31618.0
n/a	n/a	h1	79.0	2.0	LH	47.0	60.0	40.0	60.0	R	right	0.238985000004	31678.0
n/a	n/a	h1	79.0	3.0	LH	36.0	57.0	40.0	60.0	L	left	0.158289999992	31714.0
n/a	n/a	h1	79.0	4.0	LH	31.0	50.0	40.0	60.0	X	right	0.337514999963	31764.0
