onset	duration	trial_type	trial_number	bandit_num	mean_type	left_reward	right_reward	left_mean	right_mean	force_pos	response	response_time	points
n/a	n/a	h1	0.0	0.0	LH	40.0	64.0	40.0	52.0	L	left	0.9515	40.0
n/a	n/a	h1	0.0	1.0	LH	44.0	48.0	40.0	52.0	L	left	0.751600000143	84.0
n/a	n/a	h1	0.0	2.0	LH	58.0	52.0	40.0	52.0	R	right	1.536	136.0
n/a	n/a	h1	0.0	3.0	LH	40.0	62.0	40.0	52.0	L	left	0.5745	176.0
n/a	n/a	h1	0.0	4.0	LH	52.0	40.0	40.0	52.0	X	left	1.50270000005	228.0
n/a	n/a	h6	1.0	0.0	LH	58.0	58.0	60.0	64.0	R	right	0.886299999952	286.0
n/a	n/a	h6	1.0	1.0	LH	59.0	60.0	60.0	64.0	L	left	0.452299999952	345.0
n/a	n/a	h6	1.0	2.0	LH	61.0	64.0	60.0	64.0	R	right	0.4845	409.0
n/a	n/a	h6	1.0	3.0	LH	55.0	63.0	60.0	64.0	R	right	0.451100000143	472.0
n/a	n/a	h6	1.0	4.0	LH	69.0	69.0	60.0	64.0	X	right	1.1519000001	541.0
n/a	n/a	h6	1.0	5.0	LH	58.0	77.0	60.0	64.0	X	right	0.417400000095	618.0
n/a	n/a	h6	1.0	6.0	LH	51.0	47.0	60.0	64.0	X	right	0.400700000048	665.0
n/a	n/a	h6	1.0	7.0	LH	52.0	56.0	60.0	64.0	X	right	0.3005	721.0
n/a	n/a	h6	1.0	8.0	LH	62.0	56.0	60.0	64.0	X	right	0.251099999905	777.0
n/a	n/a	h6	1.0	9.0	LH	61.0	72.0	60.0	64.0	X	right	0.367400000095	849.0
n/a	n/a	h1	2.0	0.0	LH	48.0	67.0	40.0	70.0	R	right	0.951300000191	916.0
n/a	n/a	h1	2.0	1.0	LH	47.0	62.0	40.0	70.0	L	left	0.351299999952	963.0
n/a	n/a	h1	2.0	2.0	LH	39.0	62.0	40.0	70.0	R	right	0.318099999905	1025.0
n/a	n/a	h1	2.0	3.0	LH	35.0	65.0	40.0	70.0	L	left	0.267700000048	1060.0
n/a	n/a	h1	2.0	4.0	LH	50.0	67.0	40.0	70.0	X	right	1.20279999995	1127.0
n/a	n/a	h1	3.0	0.0	LH	31.0	44.0	28.0	40.0	R	right	0.533799999952	1171.0
n/a	n/a	h1	3.0	1.0	LH	27.0	54.0	28.0	40.0	L	left	0.518099999905	1198.0
n/a	n/a	h1	3.0	2.0	LH	25.0	39.0	28.0	40.0	R	right	0.301800000191	1237.0
n/a	n/a	h1	3.0	3.0	LH	29.0	30.0	28.0	40.0	L	left	0.351099999905	1266.0
n/a	n/a	h1	3.0	4.0	LH	29.0	47.0	28.0	40.0	X	right	1.50229999995	1313.0
n/a	n/a	h1	4.0	0.0	HL	67.0	22.0	60.0	30.0	R	right	0.552100000143	1335.0
n/a	n/a	h1	4.0	1.0	HL	55.0	38.0	60.0	30.0	R	right	0.384400000095	1373.0
n/a	n/a	h1	4.0	2.0	HL	83.0	34.0	60.0	30.0	R	right	0.284200000048	1407.0
n/a	n/a	h1	4.0	3.0	HL	67.0	27.0	60.0	30.0	L	left	0.373299999952	1474.0
n/a	n/a	h1	4.0	4.0	HL	64.0	30.0	60.0	30.0	X	right	0.688	1504.0
n/a	n/a	h1	5.0	0.0	HL	75.0	55.0	72.0	60.0	L	left	1.0709000001	1579.0
n/a	n/a	h1	5.0	1.0	HL	62.0	75.0	72.0	60.0	R	right	0.239299999952	1654.0
n/a	n/a	h1	5.0	2.0	HL	69.0	58.0	72.0	60.0	L	left	0.335900000095	1723.0
n/a	n/a	h1	5.0	3.0	HL	69.0	50.0	72.0	60.0	R	right	0.167599999905	1773.0
n/a	n/a	h1	5.0	4.0	HL	81.0	50.0	72.0	60.0	X	left	1.70379999995	1854.0
n/a	n/a	h1	6.0	0.0	HL	62.0	66.0	68.0	60.0	R	right	0.871800000191	1920.0
n/a	n/a	h1	6.0	1.0	HL	76.0	44.0	68.0	60.0	L	left	0.3345	1996.0
n/a	n/a	h1	6.0	2.0	HL	60.0	51.0	68.0	60.0	L	left	0.707	2056.0
n/a	n/a	h1	6.0	3.0	HL	57.0	54.0	68.0	60.0	R	right	0.351199999809	2110.0
n/a	n/a	h1	6.0	4.0	HL	63.0	47.0	68.0	60.0	X	left	1.15620000005	2173.0
n/a	n/a	h1	7.0	0.0	HL	39.0	32.0	44.0	40.0	L	left	0.484700000048	2212.0
n/a	n/a	h1	7.0	1.0	HL	49.0	52.0	44.0	40.0	L	left	0.667399999857	2261.0
n/a	n/a	h1	7.0	2.0	HL	39.0	32.0	44.0	40.0	L	left	0.400299999952	2300.0
n/a	n/a	h1	7.0	3.0	HL	36.0	47.0	44.0	40.0	R	right	0.567800000191	2347.0
n/a	n/a	h1	7.0	4.0	HL	39.0	37.0	44.0	40.0	X	left	1.3024000001	2386.0
n/a	n/a	h6	8.0	0.0	HL	96.0	65.0	90.0	60.0	L	left	0.4505	2482.0
n/a	n/a	h6	8.0	1.0	HL	88.0	57.0	90.0	60.0	L	left	0.718200000048	2570.0
n/a	n/a	h6	8.0	2.0	HL	84.0	59.0	90.0	60.0	R	right	0.834699999809	2629.0
n/a	n/a	h6	8.0	3.0	HL	76.0	67.0	90.0	60.0	R	right	0.751200000048	2696.0
n/a	n/a	h6	8.0	4.0	HL	99.0	71.0	90.0	60.0	X	left	1.39	2795.0
n/a	n/a	h6	8.0	5.0	HL	92.0	41.0	90.0	60.0	X	left	0.534399999857	2887.0
n/a	n/a	h6	8.0	6.0	HL	81.0	65.0	90.0	60.0	X	left	0.371899999857	2968.0
n/a	n/a	h6	8.0	7.0	HL	95.0	52.0	90.0	60.0	X	left	0.286	3063.0
n/a	n/a	h6	8.0	8.0	HL	90.0	70.0	90.0	60.0	X	left	0.233799999952	3153.0
n/a	n/a	h6	8.0	9.0	HL	99.0	56.0	90.0	60.0	X	left	0.183700000048	3252.0
n/a	n/a	h6	9.0	0.0	HL	39.0	36.0	40.0	36.0	R	right	0.517799999952	3288.0
n/a	n/a	h6	9.0	1.0	HL	31.0	21.0	40.0	36.0	R	right	0.272899999857	3309.0
n/a	n/a	h6	9.0	2.0	HL	46.0	27.0	40.0	36.0	L	left	1.0019000001	3355.0
n/a	n/a	h6	9.0	3.0	HL	26.0	50.0	40.0	36.0	L	left	0.534400000095	3381.0
n/a	n/a	h6	9.0	4.0	HL	41.0	28.0	40.0	36.0	X	right	2.4380999999	3409.0
n/a	n/a	h6	9.0	5.0	HL	35.0	37.0	40.0	36.0	X	right	0.356700000048	3446.0
n/a	n/a	h6	9.0	6.0	HL	36.0	38.0	40.0	36.0	X	right	0.200600000143	3484.0
n/a	n/a	h6	9.0	7.0	HL	46.0	22.0	40.0	36.0	X	right	0.334199999809	3506.0
n/a	n/a	h6	9.0	8.0	HL	35.0	32.0	40.0	36.0	X	right	0.167700000048	3538.0
n/a	n/a	h6	9.0	9.0	HL	37.0	30.0	40.0	36.0	X	right	0.107099999905	3568.0
n/a	n/a	h1	10.0	0.0	HL	70.0	46.0	60.0	40.0	R	right	0.572	3614.0
n/a	n/a	h1	10.0	1.0	HL	54.0	36.0	60.0	40.0	R	right	0.503799999952	3650.0
n/a	n/a	h1	10.0	2.0	HL	46.0	26.0	60.0	40.0	R	right	0.400900000095	3676.0
n/a	n/a	h1	10.0	3.0	HL	68.0	32.0	60.0	40.0	L	left	0.517399999857	3744.0
n/a	n/a	h1	10.0	4.0	HL	61.0	46.0	60.0	40.0	X	right	1.06879999995	3790.0
n/a	n/a	h1	11.0	0.0	HL	30.0	11.0	40.0	10.0	R	right	0.420100000143	3801.0
n/a	n/a	h1	11.0	1.0	HL	39.0	7.0	40.0	10.0	L	left	0.817700000048	3840.0
n/a	n/a	h1	11.0	2.0	HL	45.0	1.0	40.0	10.0	R	right	0.3505	3841.0
n/a	n/a	h1	11.0	3.0	HL	34.0	9.0	40.0	10.0	L	left	0.6745	3875.0
n/a	n/a	h1	11.0	4.0	HL	33.0	19.0	40.0	10.0	X	left	0.966	3908.0
n/a	n/a	h6	12.0	0.0	LH	27.0	80.0	30.0	60.0	R	right	0.534399999857	3988.0
n/a	n/a	h6	12.0	1.0	LH	40.0	61.0	30.0	60.0	R	right	0.5015	4049.0
n/a	n/a	h6	12.0	2.0	LH	20.0	58.0	30.0	60.0	L	left	0.4025	4069.0
n/a	n/a	h6	12.0	3.0	LH	25.0	65.0	30.0	60.0	L	left	0.533799999952	4094.0
n/a	n/a	h6	12.0	4.0	LH	34.0	60.0	30.0	60.0	X	right	0.850900000095	4154.0
n/a	n/a	h6	12.0	5.0	LH	33.0	53.0	30.0	60.0	X	right	0.250899999857	4207.0
n/a	n/a	h6	12.0	6.0	LH	33.0	73.0	30.0	60.0	X	right	0.2505	4280.0
n/a	n/a	h6	12.0	7.0	LH	18.0	45.0	30.0	60.0	X	right	0.150700000048	4325.0
n/a	n/a	h6	12.0	8.0	LH	37.0	68.0	30.0	60.0	X	right	0.117700000048	4393.0
n/a	n/a	h6	12.0	9.0	LH	33.0	60.0	30.0	60.0	X	right	0.223	4453.0
n/a	n/a	h6	13.0	0.0	LH	58.0	58.0	60.0	64.0	R	right	0.601299999952	4511.0
n/a	n/a	h6	13.0	1.0	LH	59.0	60.0	60.0	64.0	L	left	0.469400000095	4570.0
n/a	n/a	h6	13.0	2.0	LH	61.0	64.0	60.0	64.0	R	right	0.317100000143	4634.0
n/a	n/a	h6	13.0	3.0	LH	55.0	61.0	60.0	64.0	R	right	0.484699999809	4695.0
n/a	n/a	h6	13.0	4.0	LH	73.0	70.0	60.0	64.0	X	right	0.455	4765.0
n/a	n/a	h6	13.0	5.0	LH	69.0	59.0	60.0	64.0	X	right	0.254799999952	4824.0
n/a	n/a	h6	13.0	6.0	LH	58.0	75.0	60.0	64.0	X	right	0.317700000048	4899.0
n/a	n/a	h6	13.0	7.0	LH	61.0	68.0	60.0	64.0	X	right	0.167299999952	4967.0
n/a	n/a	h6	13.0	8.0	LH	58.0	56.0	60.0	64.0	X	right	0.135	5023.0
n/a	n/a	h6	13.0	9.0	LH	62.0	79.0	60.0	64.0	X	right	0.100900000095	5102.0
n/a	n/a	h6	14.0	0.0	LH	44.0	39.0	40.0	48.0	R	right	0.434299999952	5141.0
n/a	n/a	h6	14.0	1.0	LH	50.0	55.0	40.0	48.0	R	right	0.421100000143	5196.0
n/a	n/a	h6	14.0	2.0	LH	53.0	56.0	40.0	48.0	L	left	0.317300000191	5249.0
n/a	n/a	h6	14.0	3.0	LH	49.0	58.0	40.0	48.0	R	right	0.284400000095	5307.0
n/a	n/a	h6	14.0	4.0	LH	40.0	44.0	40.0	48.0	X	right	0.917700000048	5351.0
n/a	n/a	h6	14.0	5.0	LH	43.0	57.0	40.0	48.0	X	right	0.402	5408.0
n/a	n/a	h6	14.0	6.0	LH	39.0	43.0	40.0	48.0	X	right	0.400799999952	5451.0
n/a	n/a	h6	14.0	7.0	LH	43.0	56.0	40.0	48.0	X	right	0.352900000095	5507.0
n/a	n/a	h6	14.0	8.0	LH	23.0	56.0	40.0	48.0	X	right	0.238299999952	5563.0
n/a	n/a	h6	14.0	9.0	LH	42.0	49.0	40.0	48.0	X	right	0.384400000095	5612.0
n/a	n/a	h1	15.0	0.0	HL	65.0	59.0	68.0	60.0	L	left	0.517700000048	5677.0
n/a	n/a	h1	15.0	1.0	HL	57.0	61.0	68.0	60.0	R	right	0.417799999952	5738.0
n/a	n/a	h1	15.0	2.0	HL	54.0	48.0	68.0	60.0	L	left	0.334200000048	5792.0
n/a	n/a	h1	15.0	3.0	HL	70.0	58.0	68.0	60.0	L	left	0.434700000048	5862.0
n/a	n/a	h1	15.0	4.0	HL	69.0	51.0	68.0	60.0	X	left	0.968100000143	5931.0
n/a	n/a	h6	16.0	0.0	LH	72.0	71.0	60.0	64.0	L	left	0.468	6003.0
n/a	n/a	h6	16.0	1.0	LH	65.0	87.0	60.0	64.0	L	left	0.340200000048	6068.0
n/a	n/a	h6	16.0	2.0	LH	61.0	70.0	60.0	64.0	R	right	0.435299999952	6138.0
n/a	n/a	h6	16.0	3.0	LH	61.0	76.0	60.0	64.0	R	right	0.333800000191	6214.0
n/a	n/a	h6	16.0	4.0	LH	71.0	66.0	60.0	64.0	X	left	0.283400000095	6285.0
n/a	n/a	h6	16.0	5.0	LH	49.0	59.0	60.0	64.0	X	left	2.5849000001	6334.0
n/a	n/a	h6	16.0	6.0	LH	65.0	50.0	60.0	64.0	X	left	0.2535	6399.0
n/a	n/a	h6	16.0	7.0	LH	56.0	76.0	60.0	64.0	X	left	0.203899999857	6455.0
n/a	n/a	h6	16.0	8.0	LH	58.0	59.0	60.0	64.0	X	left	0.2065	6513.0
n/a	n/a	h6	16.0	9.0	LH	71.0	64.0	60.0	64.0	X	left	0.272599999905	6584.0
n/a	n/a	h6	17.0	0.0	LH	43.0	58.0	40.0	52.0	L	left	0.489599999905	6627.0
n/a	n/a	h6	17.0	1.0	LH	32.0	39.0	40.0	52.0	R	right	0.286299999952	6666.0
n/a	n/a	h6	17.0	2.0	LH	45.0	53.0	40.0	52.0	L	left	0.234	6711.0
n/a	n/a	h6	17.0	3.0	LH	62.0	60.0	40.0	52.0	R	right	0.284300000191	6771.0
n/a	n/a	h6	17.0	4.0	LH	32.0	54.0	40.0	52.0	X	left	0.834700000048	6803.0
n/a	n/a	h6	17.0	5.0	LH	52.0	51.0	40.0	52.0	X	left	0.3835	6855.0
n/a	n/a	h6	17.0	6.0	LH	46.0	54.0	40.0	52.0	X	left	0.338299999952	6901.0
n/a	n/a	h6	17.0	7.0	LH	55.0	58.0	40.0	52.0	X	left	0.384200000048	6956.0
n/a	n/a	h6	17.0	8.0	LH	47.0	61.0	40.0	52.0	X	left	0.418599999905	7003.0
n/a	n/a	h6	17.0	9.0	LH	48.0	45.0	40.0	52.0	X	left	0.419900000095	7051.0
n/a	n/a	h6	18.0	0.0	HL	28.0	15.0	40.0	20.0	L	left	0.517400000095	7079.0
n/a	n/a	h6	18.0	1.0	HL	53.0	16.0	40.0	20.0	L	left	0.283899999857	7132.0
n/a	n/a	h6	18.0	2.0	HL	55.0	28.0	40.0	20.0	L	left	0.318200000048	7187.0
n/a	n/a	h6	18.0	3.0	HL	53.0	20.0	40.0	20.0	R	right	0.384300000191	7207.0
n/a	n/a	h6	18.0	4.0	HL	53.0	3.0	40.0	20.0	X	left	0.702200000048	7260.0
n/a	n/a	h6	18.0	5.0	HL	40.0	15.0	40.0	20.0	X	left	0.367700000048	7300.0
n/a	n/a	h6	18.0	6.0	HL	45.0	4.0	40.0	20.0	X	left	0.233700000048	7345.0
n/a	n/a	h6	18.0	7.0	HL	41.0	28.0	40.0	20.0	X	left	0.2555	7386.0
n/a	n/a	h6	18.0	8.0	HL	43.0	25.0	40.0	20.0	X	left	0.2395	7429.0
n/a	n/a	h6	18.0	9.0	HL	47.0	26.0	40.0	20.0	X	left	0.200900000095	7476.0
n/a	n/a	h1	19.0	0.0	LH	66.0	43.0	56.0	60.0	L	left	0.933600000143	7542.0
n/a	n/a	h1	19.0	1.0	LH	33.0	67.0	56.0	60.0	R	right	0.2575	7609.0
n/a	n/a	h1	19.0	2.0	LH	42.0	59.0	56.0	60.0	L	left	0.5675	7651.0
n/a	n/a	h1	19.0	3.0	LH	55.0	64.0	56.0	60.0	R	right	0.604599999905	7715.0
n/a	n/a	h1	19.0	4.0	LH	47.0	58.0	56.0	60.0	X	right	1.60629999995	7773.0
n/a	n/a	h1	20.0	0.0	LH	25.0	23.0	32.0	40.0	L	left	0.650400000095	7798.0
n/a	n/a	h1	20.0	1.0	LH	29.0	57.0	32.0	40.0	L	left	0.5375	7827.0
n/a	n/a	h1	20.0	2.0	LH	44.0	38.0	32.0	40.0	R	right	1.553	7865.0
n/a	n/a	h1	20.0	3.0	LH	36.0	31.0	32.0	40.0	L	left	0.301400000095	7901.0
n/a	n/a	h1	20.0	4.0	LH	39.0	48.0	32.0	40.0	X	left	1.41860000014	7940.0
n/a	n/a	h6	21.0	0.0	HL	43.0	35.0	40.0	28.0	R	right	0.838899999857	7975.0
n/a	n/a	h6	21.0	1.0	HL	31.0	21.0	40.0	28.0	R	right	0.284099999905	7996.0
n/a	n/a	h6	21.0	2.0	HL	40.0	28.0	40.0	28.0	R	right	0.317599999905	8024.0
n/a	n/a	h6	21.0	3.0	HL	36.0	23.0	40.0	28.0	L	left	0.867899999857	8060.0
n/a	n/a	h6	21.0	4.0	HL	40.0	27.0	40.0	28.0	X	right	0.673099999905	8087.0
n/a	n/a	h6	21.0	5.0	HL	46.0	20.0	40.0	28.0	X	right	0.250400000095	8107.0
n/a	n/a	h6	21.0	6.0	HL	50.0	21.0	40.0	28.0	X	right	0.217299999952	8128.0
n/a	n/a	h6	21.0	7.0	HL	41.0	37.0	40.0	28.0	X	right	0.251	8165.0
n/a	n/a	h6	21.0	8.0	HL	44.0	19.0	40.0	28.0	X	right	0.284700000048	8184.0
n/a	n/a	h6	21.0	9.0	HL	37.0	25.0	40.0	28.0	X	right	0.351299999952	8209.0
n/a	n/a	h1	22.0	0.0	LH	32.0	76.0	40.0	60.0	L	left	1.10220000005	8241.0
n/a	n/a	h1	22.0	1.0	LH	37.0	65.0	40.0	60.0	R	right	0.534800000191	8306.0
n/a	n/a	h1	22.0	2.0	LH	46.0	68.0	40.0	60.0	L	left	0.967100000143	8352.0
n/a	n/a	h1	22.0	3.0	LH	37.0	69.0	40.0	60.0	R	right	0.500900000095	8421.0
n/a	n/a	h1	22.0	4.0	LH	40.0	53.0	40.0	60.0	X	right	0.917900000095	8474.0
n/a	n/a	h6	23.0	0.0	HL	49.0	36.0	60.0	40.0	L	left	1.7009000001	8523.0
n/a	n/a	h6	23.0	1.0	HL	68.0	43.0	60.0	40.0	R	right	0.601400000095	8566.0
n/a	n/a	h6	23.0	2.0	HL	55.0	40.0	60.0	40.0	L	left	0.451	8621.0
n/a	n/a	h6	23.0	3.0	HL	67.0	41.0	60.0	40.0	R	right	0.467900000095	8662.0
n/a	n/a	h6	23.0	4.0	HL	49.0	34.0	60.0	40.0	X	left	0.817799999952	8711.0
n/a	n/a	h6	23.0	5.0	HL	57.0	35.0	60.0	40.0	X	left	0.535	8768.0
n/a	n/a	h6	23.0	6.0	HL	55.0	50.0	60.0	40.0	X	left	0.551400000095	8823.0
n/a	n/a	h6	23.0	7.0	HL	54.0	28.0	60.0	40.0	X	left	0.256900000095	8877.0
n/a	n/a	h6	23.0	8.0	HL	66.0	35.0	60.0	40.0	X	left	0.617599999905	8943.0
n/a	n/a	h6	23.0	9.0	HL	54.0	40.0	60.0	40.0	X	left	0.383700000048	8997.0
n/a	n/a	h6	24.0	0.0	LH	40.0	38.0	40.0	48.0	L	left	0.884399999857	9037.0
n/a	n/a	h6	24.0	1.0	LH	37.0	44.0	40.0	48.0	L	left	0.634700000048	9074.0
n/a	n/a	h6	24.0	2.0	LH	60.0	44.0	40.0	48.0	R	right	0.484200000048	9118.0
n/a	n/a	h6	24.0	3.0	LH	42.0	52.0	40.0	48.0	R	right	0.819200000048	9170.0
n/a	n/a	h6	24.0	4.0	LH	52.0	55.0	40.0	48.0	X	right	1.15529999995	9225.0
n/a	n/a	h6	24.0	5.0	LH	46.0	51.0	40.0	48.0	X	right	0.418900000095	9276.0
n/a	n/a	h6	24.0	6.0	LH	50.0	51.0	40.0	48.0	X	right	0.483	9327.0
n/a	n/a	h6	24.0	7.0	LH	47.0	34.0	40.0	48.0	X	right	0.334199999809	9361.0
n/a	n/a	h6	24.0	8.0	LH	30.0	49.0	40.0	48.0	X	right	0.300799999952	9410.0
n/a	n/a	h6	24.0	9.0	LH	29.0	53.0	40.0	48.0	X	right	0.207599999905	9463.0
n/a	n/a	h6	25.0	0.0	LH	25.0	48.0	20.0	40.0	L	left	0.481299999952	9488.0
n/a	n/a	h6	25.0	1.0	LH	20.0	48.0	20.0	40.0	R	right	0.217900000095	9536.0
n/a	n/a	h6	25.0	2.0	LH	8.0	28.0	20.0	40.0	R	right	0.386299999952	9564.0
n/a	n/a	h6	25.0	3.0	LH	22.0	33.0	20.0	40.0	L	left	0.567099999905	9586.0
n/a	n/a	h6	25.0	4.0	LH	29.0	28.0	20.0	40.0	X	right	0.601299999952	9614.0
n/a	n/a	h6	25.0	5.0	LH	16.0	39.0	20.0	40.0	X	right	0.250900000095	9653.0
n/a	n/a	h6	25.0	6.0	LH	41.0	51.0	20.0	40.0	X	right	0.217400000095	9704.0
n/a	n/a	h6	25.0	7.0	LH	22.0	35.0	20.0	40.0	X	right	0.170200000048	9739.0
n/a	n/a	h6	25.0	8.0	LH	30.0	50.0	20.0	40.0	X	right	0.1345	9789.0
n/a	n/a	h6	25.0	9.0	LH	14.0	34.0	20.0	40.0	X	right	0.167200000048	9823.0
n/a	n/a	h6	26.0	0.0	LH	69.0	60.0	56.0	60.0	R	right	0.417799999952	9883.0
n/a	n/a	h6	26.0	1.0	LH	55.0	53.0	56.0	60.0	L	left	0.434400000095	9938.0
n/a	n/a	h6	26.0	2.0	LH	57.0	59.0	56.0	60.0	L	left	0.435	9995.0
n/a	n/a	h6	26.0	3.0	LH	62.0	46.0	56.0	60.0	L	left	0.251100000143	10057.0
n/a	n/a	h6	26.0	4.0	LH	50.0	63.0	56.0	60.0	X	left	0.608	10107.0
n/a	n/a	h6	26.0	5.0	LH	65.0	68.0	56.0	60.0	X	left	0.250700000048	10172.0
n/a	n/a	h6	26.0	6.0	LH	59.0	64.0	56.0	60.0	X	left	0.151400000095	10231.0
n/a	n/a	h6	26.0	7.0	LH	46.0	52.0	56.0	60.0	X	left	0.118200000048	10277.0
n/a	n/a	h6	26.0	8.0	LH	68.0	58.0	56.0	60.0	X	left	0.184300000191	10345.0
n/a	n/a	h6	26.0	9.0	LH	62.0	62.0	56.0	60.0	X	left	0.183799999952	10407.0
n/a	n/a	h1	27.0	0.0	HL	57.0	35.0	60.0	40.0	L	left	0.470599999905	10464.0
n/a	n/a	h1	27.0	1.0	HL	63.0	50.0	60.0	40.0	R	right	0.421299999952	10514.0
n/a	n/a	h1	27.0	2.0	HL	57.0	53.0	60.0	40.0	L	left	0.2065	10571.0
n/a	n/a	h1	27.0	3.0	HL	54.0	48.0	60.0	40.0	R	right	0.184400000095	10619.0
n/a	n/a	h1	27.0	4.0	HL	62.0	36.0	60.0	40.0	X	left	0.935799999952	10681.0
n/a	n/a	h6	28.0	0.0	HL	43.0	26.0	40.0	28.0	R	right	0.617399999857	10707.0
n/a	n/a	h6	28.0	1.0	HL	31.0	21.0	40.0	28.0	R	right	0.417299999952	10728.0
n/a	n/a	h6	28.0	2.0	HL	36.0	25.0	40.0	28.0	R	right	0.3035	10753.0
n/a	n/a	h6	28.0	3.0	HL	40.0	23.0	40.0	28.0	L	left	0.467799999952	10793.0
n/a	n/a	h6	28.0	4.0	HL	40.0	18.0	40.0	28.0	X	right	0.150799999952	10811.0
n/a	n/a	h6	28.0	5.0	HL	42.0	29.0	40.0	28.0	X	right	0.336	10840.0
n/a	n/a	h6	28.0	6.0	HL	38.0	28.0	40.0	28.0	X	right	0.172099999905	10868.0
n/a	n/a	h6	28.0	7.0	HL	43.0	28.0	40.0	28.0	X	right	0.201599999905	10896.0
n/a	n/a	h6	28.0	8.0	HL	43.0	29.0	40.0	28.0	X	right	0.151700000048	10925.0
n/a	n/a	h6	28.0	9.0	HL	45.0	35.0	40.0	28.0	X	right	0.168299999952	10960.0
n/a	n/a	h6	29.0	0.0	LH	22.0	58.0	40.0	52.0	L	left	0.484900000095	10982.0
n/a	n/a	h6	29.0	1.0	LH	32.0	51.0	40.0	52.0	R	right	0.387799999952	11033.0
n/a	n/a	h6	29.0	2.0	LH	62.0	53.0	40.0	52.0	L	left	0.2055	11095.0
n/a	n/a	h6	29.0	3.0	LH	52.0	54.0	40.0	52.0	R	right	0.102799999952	11149.0
n/a	n/a	h6	29.0	4.0	LH	37.0	56.0	40.0	52.0	X	right	0.184099999905	11205.0
n/a	n/a	h6	29.0	5.0	LH	45.0	43.0	40.0	52.0	X	right	0.467700000048	11248.0
n/a	n/a	h6	29.0	6.0	LH	55.0	51.0	40.0	52.0	X	right	0.167300000191	11299.0
n/a	n/a	h6	29.0	7.0	LH	45.0	42.0	40.0	52.0	X	right	0.417799999952	11341.0
n/a	n/a	h6	29.0	8.0	LH	49.0	39.0	40.0	52.0	X	right	0.251099999905	11380.0
n/a	n/a	h6	29.0	9.0	LH	34.0	68.0	40.0	52.0	X	right	0.302900000095	11448.0
n/a	n/a	h1	30.0	0.0	LH	43.0	75.0	40.0	70.0	R	right	0.350600000143	11523.0
n/a	n/a	h1	30.0	1.0	LH	30.0	80.0	40.0	70.0	R	right	0.251799999952	11603.0
n/a	n/a	h1	30.0	2.0	LH	40.0	70.0	40.0	70.0	R	right	0.167299999952	11673.0
n/a	n/a	h1	30.0	3.0	LH	22.0	65.0	40.0	70.0	L	left	0.801199999809	11695.0
n/a	n/a	h1	30.0	4.0	LH	40.0	78.0	40.0	70.0	X	right	0.191799999952	11773.0
n/a	n/a	h1	31.0	0.0	HL	60.0	66.0	68.0	60.0	R	right	0.484900000095	11839.0
n/a	n/a	h1	31.0	1.0	HL	62.0	54.0	68.0	60.0	L	left	1.4515999999	11901.0
n/a	n/a	h1	31.0	2.0	HL	76.0	51.0	68.0	60.0	L	left	0.501200000048	11977.0
n/a	n/a	h1	31.0	3.0	HL	57.0	60.0	68.0	60.0	R	right	0.2845	12037.0
n/a	n/a	h1	31.0	4.0	HL	64.0	44.0	68.0	60.0	X	right	1.08529999995	12081.0
n/a	n/a	h1	32.0	0.0	HL	30.0	7.0	40.0	10.0	R	right	0.534400000095	12088.0
n/a	n/a	h1	32.0	1.0	HL	39.0	11.0	40.0	10.0	L	left	0.714899999857	12127.0
n/a	n/a	h1	32.0	2.0	HL	45.0	1.0	40.0	10.0	R	right	0.501299999952	12128.0
n/a	n/a	h1	32.0	3.0	HL	46.0	17.0	40.0	10.0	L	left	0.767800000191	12174.0
n/a	n/a	h1	32.0	4.0	HL	34.0	9.0	40.0	10.0	X	left	1.1000999999	12208.0
n/a	n/a	h6	33.0	0.0	HL	49.0	41.0	60.0	40.0	L	left	0.467600000143	12257.0
n/a	n/a	h6	33.0	1.0	HL	68.0	43.0	60.0	40.0	R	right	0.384	12300.0
n/a	n/a	h6	33.0	2.0	HL	67.0	40.0	60.0	40.0	L	left	0.567799999952	12367.0
n/a	n/a	h6	33.0	3.0	HL	55.0	36.0	60.0	40.0	R	right	0.534400000095	12403.0
n/a	n/a	h6	33.0	4.0	HL	59.0	49.0	60.0	40.0	X	left	0.267900000095	12462.0
n/a	n/a	h6	33.0	5.0	HL	60.0	28.0	60.0	40.0	X	left	0.518100000143	12522.0
n/a	n/a	h6	33.0	6.0	HL	50.0	48.0	60.0	40.0	X	left	0.218299999952	12572.0
n/a	n/a	h6	33.0	7.0	HL	64.0	50.0	60.0	40.0	X	left	0.200700000048	12636.0
n/a	n/a	h6	33.0	8.0	HL	57.0	31.0	60.0	40.0	X	left	0.172099999905	12693.0
n/a	n/a	h6	33.0	9.0	HL	54.0	45.0	60.0	40.0	X	left	0.184700000048	12747.0
n/a	n/a	h6	34.0	0.0	LH	62.0	77.0	60.0	80.0	L	left	0.517	12809.0
n/a	n/a	h6	34.0	1.0	LH	60.0	67.0	60.0	80.0	L	left	0.517599999905	12869.0
n/a	n/a	h6	34.0	2.0	LH	58.0	68.0	60.0	80.0	L	left	0.269799999952	12927.0
n/a	n/a	h6	34.0	3.0	LH	57.0	78.0	60.0	80.0	R	right	2.92260000014	13005.0
n/a	n/a	h6	34.0	4.0	LH	66.0	90.0	60.0	80.0	X	right	0.7515	13095.0
n/a	n/a	h6	34.0	5.0	LH	81.0	75.0	60.0	80.0	X	right	0.874600000143	13170.0
n/a	n/a	h6	34.0	6.0	LH	67.0	84.0	60.0	80.0	X	right	0.467200000048	13254.0
n/a	n/a	h6	34.0	7.0	LH	53.0	68.0	60.0	80.0	X	right	0.303299999952	13322.0
n/a	n/a	h6	34.0	8.0	LH	72.0	88.0	60.0	80.0	X	right	0.486	13410.0
n/a	n/a	h6	34.0	9.0	LH	58.0	63.0	60.0	80.0	X	right	0.421099999905	13473.0
n/a	n/a	h6	35.0	0.0	LH	27.0	48.0	30.0	60.0	R	right	0.617900000095	13521.0
n/a	n/a	h6	35.0	1.0	LH	40.0	61.0	30.0	60.0	R	right	0.802100000143	13582.0
n/a	n/a	h6	35.0	2.0	LH	20.0	58.0	30.0	60.0	L	left	0.718099999905	13602.0
n/a	n/a	h6	35.0	3.0	LH	38.0	65.0	30.0	60.0	L	left	0.917600000143	13640.0
n/a	n/a	h6	35.0	4.0	LH	30.0	62.0	30.0	60.0	X	left	1.63560000014	13670.0
n/a	n/a	h6	35.0	5.0	LH	25.0	58.0	30.0	60.0	X	right	0.467799999952	13728.0
n/a	n/a	h6	35.0	6.0	LH	32.0	69.0	30.0	60.0	X	right	0.218200000048	13797.0
n/a	n/a	h6	35.0	7.0	LH	38.0	65.0	30.0	60.0	X	right	0.100900000095	13862.0
n/a	n/a	h6	35.0	8.0	LH	40.0	80.0	30.0	60.0	X	right	0.116200000048	13942.0
n/a	n/a	h6	35.0	9.0	LH	18.0	68.0	30.0	60.0	X	right	0.156599999905	14010.0
n/a	n/a	h1	36.0	0.0	HL	70.0	37.0	60.0	40.0	R	right	0.451200000048	14047.0
n/a	n/a	h1	36.0	1.0	HL	68.0	36.0	60.0	40.0	R	right	0.5065	14083.0
n/a	n/a	h1	36.0	2.0	HL	46.0	26.0	60.0	40.0	R	right	0.484599999905	14109.0
n/a	n/a	h1	36.0	3.0	HL	54.0	32.0	60.0	40.0	L	left	0.301299999952	14163.0
n/a	n/a	h1	36.0	4.0	HL	54.0	46.0	60.0	40.0	X	right	0.451	14209.0
n/a	n/a	h1	37.0	0.0	LH	51.0	75.0	48.0	60.0	R	right	0.901099999905	14284.0
n/a	n/a	h1	37.0	1.0	LH	58.0	57.0	48.0	60.0	R	right	0.417199999809	14341.0
n/a	n/a	h1	37.0	2.0	LH	46.0	58.0	48.0	60.0	L	left	0.617800000191	14387.0
n/a	n/a	h1	37.0	3.0	LH	40.0	48.0	48.0	60.0	R	right	0.217700000048	14435.0
n/a	n/a	h1	37.0	4.0	LH	42.0	54.0	48.0	60.0	X	right	0.783900000095	14489.0
n/a	n/a	h6	38.0	0.0	HL	77.0	45.0	70.0	40.0	L	left	0.667600000143	14566.0
n/a	n/a	h6	38.0	1.0	HL	68.0	29.0	70.0	40.0	L	left	0.618	14634.0
n/a	n/a	h6	38.0	2.0	HL	71.0	27.0	70.0	40.0	L	left	0.4915	14705.0
n/a	n/a	h6	38.0	3.0	HL	82.0	35.0	70.0	40.0	R	right	0.701699999809	14740.0
n/a	n/a	h6	38.0	4.0	HL	64.0	43.0	70.0	40.0	X	left	0.501299999952	14804.0
n/a	n/a	h6	38.0	5.0	HL	56.0	43.0	70.0	40.0	X	left	0.300900000095	14860.0
n/a	n/a	h6	38.0	6.0	HL	73.0	47.0	70.0	40.0	X	left	0.168599999905	14933.0
n/a	n/a	h6	38.0	7.0	HL	80.0	40.0	70.0	40.0	X	left	0.100799999952	15013.0
n/a	n/a	h6	38.0	8.0	HL	71.0	44.0	70.0	40.0	X	left	0.1505	15084.0
n/a	n/a	h6	38.0	9.0	HL	83.0	48.0	70.0	40.0	X	left	0.138599999905	15167.0
n/a	n/a	h1	39.0	0.0	HL	39.0	32.0	44.0	40.0	L	left	0.418200000048	15206.0
n/a	n/a	h1	39.0	1.0	HL	36.0	52.0	44.0	40.0	L	left	0.584399999857	15242.0
n/a	n/a	h1	39.0	2.0	HL	39.0	47.0	44.0	40.0	L	left	0.237	15281.0
n/a	n/a	h1	39.0	3.0	HL	49.0	32.0	44.0	40.0	R	right	0.785200000048	15313.0
n/a	n/a	h1	39.0	4.0	HL	55.0	46.0	44.0	40.0	X	left	0.134600000143	15368.0
n/a	n/a	h6	40.0	0.0	HL	36.0	38.0	40.0	28.0	L	left	0.4175	15404.0
n/a	n/a	h6	40.0	1.0	HL	37.0	40.0	40.0	28.0	L	left	0.505200000048	15441.0
n/a	n/a	h6	40.0	2.0	HL	33.0	23.0	40.0	28.0	R	right	1.21839999986	15464.0
n/a	n/a	h6	40.0	3.0	HL	44.0	27.0	40.0	28.0	R	right	0.434200000048	15491.0
n/a	n/a	h6	40.0	4.0	HL	22.0	36.0	40.0	28.0	X	left	0.401700000048	15513.0
n/a	n/a	h6	40.0	5.0	HL	47.0	30.0	40.0	28.0	X	left	0.234299999952	15560.0
n/a	n/a	h6	40.0	6.0	HL	31.0	16.0	40.0	28.0	X	left	0.351800000191	15591.0
n/a	n/a	h6	40.0	7.0	HL	47.0	34.0	40.0	28.0	X	left	0.157400000095	15638.0
n/a	n/a	h6	40.0	8.0	HL	39.0	20.0	40.0	28.0	X	left	0.454700000048	15677.0
n/a	n/a	h6	40.0	9.0	HL	37.0	36.0	40.0	28.0	X	left	0.184099999905	15714.0
n/a	n/a	h1	41.0	0.0	LH	65.0	58.0	52.0	60.0	L	left	0.371300000191	15779.0
n/a	n/a	h1	41.0	1.0	LH	49.0	64.0	52.0	60.0	L	left	0.334200000048	15828.0
n/a	n/a	h1	41.0	2.0	LH	52.0	73.0	52.0	60.0	R	right	0.289700000048	15901.0
n/a	n/a	h1	41.0	3.0	LH	52.0	64.0	52.0	60.0	R	right	1.25139999986	15965.0
n/a	n/a	h1	41.0	4.0	LH	52.0	62.0	52.0	60.0	X	right	0.134399999857	16027.0
n/a	n/a	h1	42.0	0.0	LH	22.0	75.0	40.0	70.0	R	right	0.367299999952	16102.0
n/a	n/a	h1	42.0	1.0	LH	30.0	65.0	40.0	70.0	R	right	0.601400000095	16167.0
n/a	n/a	h1	42.0	2.0	LH	40.0	70.0	40.0	70.0	R	right	0.234799999952	16237.0
n/a	n/a	h1	42.0	3.0	LH	43.0	80.0	40.0	70.0	L	left	0.885100000143	16280.0
n/a	n/a	h1	42.0	4.0	LH	44.0	86.0	40.0	70.0	X	right	0.501900000095	16366.0
n/a	n/a	h1	43.0	0.0	LH	32.0	50.0	36.0	40.0	L	left	0.351200000048	16398.0
n/a	n/a	h1	43.0	1.0	LH	39.0	44.0	36.0	40.0	R	right	0.218200000048	16442.0
n/a	n/a	h1	43.0	2.0	LH	27.0	48.0	36.0	40.0	L	left	0.29	16469.0
n/a	n/a	h1	43.0	3.0	LH	44.0	31.0	36.0	40.0	L	left	0.651100000143	16513.0
n/a	n/a	h1	43.0	4.0	LH	42.0	45.0	36.0	40.0	X	left	1.73560000014	16555.0
n/a	n/a	h1	44.0	0.0	HL	58.0	57.0	64.0	60.0	L	left	0.5705	16613.0
n/a	n/a	h1	44.0	1.0	HL	68.0	62.0	64.0	60.0	R	right	0.334400000095	16675.0
n/a	n/a	h1	44.0	2.0	HL	61.0	75.0	64.0	60.0	L	left	0.251	16736.0
n/a	n/a	h1	44.0	3.0	HL	44.0	57.0	64.0	60.0	R	right	0.384	16793.0
n/a	n/a	h1	44.0	4.0	HL	65.0	64.0	64.0	60.0	X	right	0.969200000048	16857.0
n/a	n/a	h1	45.0	0.0	HL	60.0	55.0	72.0	60.0	L	left	0.334300000191	16917.0
n/a	n/a	h1	45.0	1.0	HL	69.0	48.0	72.0	60.0	R	right	0.266100000143	16965.0
n/a	n/a	h1	45.0	2.0	HL	62.0	75.0	72.0	60.0	L	left	0.267299999952	17027.0
n/a	n/a	h1	45.0	3.0	HL	69.0	50.0	72.0	60.0	R	right	0.205799999952	17077.0
n/a	n/a	h1	45.0	4.0	HL	75.0	58.0	72.0	60.0	X	left	0.884100000143	17152.0
n/a	n/a	h6	46.0	0.0	LH	72.0	71.0	60.0	64.0	L	left	1.1855	17224.0
n/a	n/a	h6	46.0	1.0	LH	61.0	87.0	60.0	64.0	L	left	0.417700000048	17285.0
n/a	n/a	h6	46.0	2.0	LH	49.0	70.0	60.0	64.0	R	right	0.618	17355.0
n/a	n/a	h6	46.0	3.0	LH	61.0	65.0	60.0	64.0	R	right	0.467900000095	17420.0
n/a	n/a	h6	46.0	4.0	LH	70.0	72.0	60.0	64.0	X	right	0.652	17492.0
n/a	n/a	h6	46.0	5.0	LH	69.0	65.0	60.0	64.0	X	right	0.333800000191	17557.0
n/a	n/a	h6	46.0	6.0	LH	60.0	52.0	60.0	64.0	X	right	0.184699999809	17609.0
n/a	n/a	h6	46.0	7.0	LH	63.0	61.0	60.0	64.0	X	right	0.124100000143	17670.0
n/a	n/a	h6	46.0	8.0	LH	58.0	76.0	60.0	64.0	X	right	0.184599999905	17746.0
n/a	n/a	h6	46.0	9.0	LH	54.0	59.0	60.0	64.0	X	right	0.100900000095	17805.0
n/a	n/a	h1	47.0	0.0	HL	67.0	59.0	68.0	60.0	L	left	0.649700000048	17872.0
n/a	n/a	h1	47.0	1.0	HL	54.0	58.0	68.0	60.0	R	right	0.351	17930.0
n/a	n/a	h1	47.0	2.0	HL	57.0	48.0	68.0	60.0	L	left	0.618	17987.0
n/a	n/a	h1	47.0	3.0	HL	65.0	61.0	68.0	60.0	L	left	0.550699999809	18052.0
n/a	n/a	h1	47.0	4.0	HL	70.0	45.0	68.0	60.0	X	right	0.301	18097.0
n/a	n/a	h1	48.0	0.0	HL	67.0	16.0	60.0	30.0	R	right	0.433599999905	18113.0
n/a	n/a	h1	48.0	1.0	HL	67.0	38.0	60.0	30.0	R	right	0.434799999952	18151.0
n/a	n/a	h1	48.0	2.0	HL	83.0	27.0	60.0	30.0	R	right	0.417700000048	18178.0
n/a	n/a	h1	48.0	3.0	HL	55.0	34.0	60.0	30.0	L	left	0.684600000143	18233.0
n/a	n/a	h1	48.0	4.0	HL	70.0	22.0	60.0	30.0	X	right	0.4675	18255.0
n/a	n/a	h6	49.0	0.0	HL	72.0	45.0	70.0	40.0	L	left	0.450799999952	18327.0
n/a	n/a	h6	49.0	1.0	HL	68.0	29.0	70.0	40.0	L	left	0.301600000143	18395.0
n/a	n/a	h6	49.0	2.0	HL	64.0	27.0	70.0	40.0	L	left	0.283700000048	18459.0
n/a	n/a	h6	49.0	3.0	HL	82.0	31.0	70.0	40.0	R	right	0.651	18490.0
n/a	n/a	h6	49.0	4.0	HL	77.0	23.0	70.0	40.0	X	left	0.201900000095	18567.0
n/a	n/a	h6	49.0	5.0	HL	74.0	35.0	70.0	40.0	X	left	0.517700000048	18641.0
n/a	n/a	h6	49.0	6.0	HL	86.0	53.0	70.0	40.0	X	left	0.301099999905	18727.0
n/a	n/a	h6	49.0	7.0	HL	68.0	32.0	70.0	40.0	X	left	0.184	18795.0
n/a	n/a	h6	49.0	8.0	HL	71.0	27.0	70.0	40.0	X	left	0.168199999809	18866.0
n/a	n/a	h6	49.0	9.0	HL	67.0	43.0	70.0	40.0	X	left	0.1165	18933.0
n/a	n/a	h6	50.0	0.0	HL	89.0	65.0	90.0	60.0	L	left	0.501799999952	19022.0
n/a	n/a	h6	50.0	1.0	HL	88.0	57.0	90.0	60.0	L	left	0.334199999809	19110.0
n/a	n/a	h6	50.0	2.0	HL	84.0	72.0	90.0	60.0	R	right	0.484099999905	19182.0
n/a	n/a	h6	50.0	3.0	HL	76.0	67.0	90.0	60.0	R	right	0.3675	19249.0
n/a	n/a	h6	50.0	4.0	HL	96.0	66.0	90.0	60.0	X	left	0.4845	19345.0
n/a	n/a	h6	50.0	5.0	HL	99.0	61.0	90.0	60.0	X	left	0.150400000095	19444.0
n/a	n/a	h6	50.0	6.0	HL	84.0	67.0	90.0	60.0	X	left	0.117699999809	19528.0
n/a	n/a	h6	50.0	7.0	HL	91.0	70.0	90.0	60.0	X	left	0.117599999905	19619.0
n/a	n/a	h6	50.0	8.0	HL	85.0	51.0	90.0	60.0	X	left	0.117899999857	19704.0
n/a	n/a	h6	50.0	9.0	HL	83.0	59.0	90.0	60.0	X	left	0.117399999857	19787.0
n/a	n/a	h6	51.0	0.0	HL	60.0	51.0	60.0	52.0	R	right	0.534099999905	19838.0
n/a	n/a	h6	51.0	1.0	HL	55.0	43.0	60.0	52.0	L	left	0.235599999905	19893.0
n/a	n/a	h6	51.0	2.0	HL	59.0	62.0	60.0	52.0	L	left	0.3005	19952.0
n/a	n/a	h6	51.0	3.0	HL	53.0	52.0	60.0	52.0	R	right	0.189799999952	20004.0
n/a	n/a	h6	51.0	4.0	HL	52.0	57.0	60.0	52.0	X	left	0.224299999952	20056.0
n/a	n/a	h6	51.0	5.0	HL	78.0	49.0	60.0	52.0	X	left	0.150400000095	20134.0
n/a	n/a	h6	51.0	6.0	HL	44.0	61.0	60.0	52.0	X	left	0.117600000143	20178.0
n/a	n/a	h6	51.0	7.0	HL	65.0	44.0	60.0	52.0	X	left	0.0901000001431	20243.0
n/a	n/a	h6	51.0	8.0	HL	60.0	42.0	60.0	52.0	X	left	0.0857000000477	20303.0
n/a	n/a	h6	51.0	9.0	HL	59.0	67.0	60.0	52.0	X	left	0.1005	20362.0
n/a	n/a	h6	52.0	0.0	LH	40.0	38.0	40.0	48.0	L	left	0.5555	20402.0
n/a	n/a	h6	52.0	1.0	LH	42.0	44.0	40.0	48.0	L	left	0.451300000191	20444.0
n/a	n/a	h6	52.0	2.0	LH	60.0	47.0	40.0	48.0	R	right	0.468200000048	20491.0
n/a	n/a	h6	52.0	3.0	LH	37.0	52.0	40.0	48.0	R	right	0.372	20543.0
n/a	n/a	h6	52.0	4.0	LH	31.0	59.0	40.0	48.0	X	right	1.43570000005	20602.0
n/a	n/a	h6	52.0	5.0	LH	39.0	40.0	40.0	48.0	X	right	0.221599999905	20642.0
n/a	n/a	h6	52.0	6.0	LH	43.0	44.0	40.0	48.0	X	right	0.117099999905	20686.0
n/a	n/a	h6	52.0	7.0	LH	50.0	47.0	40.0	48.0	X	right	0.2515	20733.0
n/a	n/a	h6	52.0	8.0	LH	55.0	41.0	40.0	48.0	X	right	0.034100000143	20774.0
n/a	n/a	h6	52.0	9.0	LH	34.0	45.0	40.0	48.0	X	right	0.148100000143	20819.0
n/a	n/a	h6	53.0	0.0	LH	19.0	45.0	30.0	60.0	R	right	1.21870000005	20864.0
n/a	n/a	h6	53.0	1.0	LH	39.0	62.0	30.0	60.0	L	left	0.222700000048	20903.0
n/a	n/a	h6	53.0	2.0	LH	24.0	65.0	30.0	60.0	L	left	0.151200000048	20927.0
n/a	n/a	h6	53.0	3.0	LH	42.0	55.0	30.0	60.0	L	left	1.4855999999	20969.0
n/a	n/a	h6	53.0	4.0	LH	37.0	72.0	30.0	60.0	X	left	0.486700000048	21006.0
n/a	n/a	h6	53.0	5.0	LH	31.0	61.0	30.0	60.0	X	left	0.1175	21037.0
n/a	n/a	h6	53.0	6.0	LH	33.0	50.0	30.0	60.0	X	left	0.100899999857	21070.0
n/a	n/a	h6	53.0	7.0	LH	29.0	88.0	30.0	60.0	X	left	0.100599999905	21099.0
n/a	n/a	h6	53.0	8.0	LH	11.0	62.0	30.0	60.0	X	left	0.100299999952	21110.0
n/a	n/a	h6	53.0	9.0	LH	44.0	70.0	30.0	60.0	X	left	0.100800000191	21154.0
n/a	n/a	h6	54.0	0.0	HL	41.0	38.0	40.0	28.0	L	left	0.618100000143	21195.0
n/a	n/a	h6	54.0	1.0	HL	37.0	27.0	40.0	28.0	L	left	0.434600000143	21232.0
n/a	n/a	h6	54.0	2.0	HL	33.0	23.0	40.0	28.0	R	right	0.817699999809	21255.0
n/a	n/a	h6	54.0	3.0	HL	44.0	40.0	40.0	28.0	R	right	0.417700000048	21295.0
n/a	n/a	h6	54.0	4.0	HL	27.0	30.0	40.0	28.0	X	left	0.921600000143	21322.0
n/a	n/a	h6	54.0	5.0	HL	36.0	28.0	40.0	28.0	X	left	0.784900000095	21358.0
n/a	n/a	h6	54.0	6.0	HL	45.0	35.0	40.0	28.0	X	right	0.484899999857	21393.0
n/a	n/a	h6	54.0	7.0	HL	44.0	28.0	40.0	28.0	X	right	0.0339000000954	21421.0
n/a	n/a	h6	54.0	8.0	HL	42.0	30.0	40.0	28.0	X	right	0.584299999952	21451.0
n/a	n/a	h6	54.0	9.0	HL	45.0	31.0	40.0	28.0	X	right	0.167800000191	21482.0
n/a	n/a	h1	55.0	0.0	LH	40.0	64.0	40.0	52.0	L	left	0.451200000048	21522.0
n/a	n/a	h1	55.0	1.0	LH	34.0	52.0	40.0	52.0	L	left	0.769	21556.0
n/a	n/a	h1	55.0	2.0	LH	40.0	58.0	40.0	52.0	R	right	0.200700000048	21614.0
n/a	n/a	h1	55.0	3.0	LH	58.0	62.0	40.0	52.0	L	left	0.3985	21672.0
n/a	n/a	h1	55.0	4.0	LH	44.0	48.0	40.0	52.0	X	left	0.600699999809	21716.0
n/a	n/a	h6	56.0	0.0	HL	60.0	56.0	60.0	52.0	R	right	0.718	21772.0
n/a	n/a	h6	56.0	1.0	HL	67.0	49.0	60.0	52.0	L	left	0.550599999905	21839.0
n/a	n/a	h6	56.0	2.0	HL	67.0	51.0	60.0	52.0	R	right	0.668100000143	21890.0
n/a	n/a	h6	56.0	3.0	HL	69.0	59.0	60.0	52.0	R	right	0.751200000048	21949.0
n/a	n/a	h6	56.0	4.0	HL	70.0	78.0	60.0	52.0	X	left	0.537799999952	22019.0
n/a	n/a	h6	56.0	5.0	HL	55.0	45.0	60.0	52.0	X	left	0.150799999952	22074.0
n/a	n/a	h6	56.0	6.0	HL	75.0	51.0	60.0	52.0	X	left	0.034	22149.0
n/a	n/a	h6	56.0	7.0	HL	66.0	67.0	60.0	52.0	X	left	0.0842999999522	22215.0
n/a	n/a	h6	56.0	8.0	HL	61.0	45.0	60.0	52.0	X	left	0.685099999905	22276.0
n/a	n/a	h6	56.0	9.0	HL	60.0	63.0	60.0	52.0	X	left	0.118100000143	22336.0
n/a	n/a	h6	57.0	0.0	HL	39.0	36.0	40.0	36.0	R	right	0.534400000095	22372.0
n/a	n/a	h6	57.0	1.0	HL	31.0	38.0	40.0	36.0	R	right	0.9685	22410.0
n/a	n/a	h6	57.0	2.0	HL	46.0	27.0	40.0	36.0	L	left	0.451	22456.0
n/a	n/a	h6	57.0	3.0	HL	35.0	50.0	40.0	36.0	L	left	0.588600000143	22491.0
n/a	n/a	h6	57.0	4.0	HL	46.0	20.0	40.0	36.0	X	right	0.251299999952	22511.0
n/a	n/a	h6	57.0	5.0	HL	45.0	22.0	40.0	36.0	X	right	0.100400000095	22533.0
n/a	n/a	h6	57.0	6.0	HL	31.0	42.0	40.0	36.0	X	left	0.286200000048	22564.0
n/a	n/a	h6	57.0	7.0	HL	40.0	31.0	40.0	36.0	X	left	0.1015	22604.0
n/a	n/a	h6	57.0	8.0	HL	49.0	43.0	40.0	36.0	X	left	0.101100000143	22653.0
n/a	n/a	h6	57.0	9.0	HL	26.0	21.0	40.0	36.0	X	left	0.150900000095	22679.0
n/a	n/a	h1	58.0	0.0	HL	75.0	57.0	64.0	60.0	L	left	0.333600000143	22754.0
n/a	n/a	h1	58.0	1.0	HL	68.0	75.0	64.0	60.0	R	right	0.184100000143	22829.0
n/a	n/a	h1	58.0	2.0	HL	61.0	62.0	64.0	60.0	L	left	0.269100000143	22890.0
n/a	n/a	h1	58.0	3.0	HL	44.0	57.0	64.0	60.0	R	right	0.2675	22947.0
n/a	n/a	h1	58.0	4.0	HL	58.0	52.0	64.0	60.0	X	left	0.751099999905	23005.0
n/a	n/a	h6	59.0	0.0	LH	19.0	65.0	30.0	60.0	R	right	0.452399999857	23070.0
n/a	n/a	h6	59.0	1.0	LH	39.0	62.0	30.0	60.0	L	left	0.234299999952	23109.0
n/a	n/a	h6	59.0	2.0	LH	24.0	45.0	30.0	60.0	L	left	0.467400000095	23133.0
n/a	n/a	h6	59.0	3.0	LH	25.0	55.0	30.0	60.0	L	left	0.404200000048	23158.0
n/a	n/a	h6	59.0	4.0	LH	40.0	55.0	30.0	60.0	X	right	0.288700000048	23213.0
n/a	n/a	h6	59.0	5.0	LH	23.0	71.0	30.0	60.0	X	left	0.167199999809	23236.0
n/a	n/a	h6	59.0	6.0	LH	42.0	65.0	30.0	60.0	X	left	0.2175	23278.0
n/a	n/a	h6	59.0	7.0	LH	28.0	55.0	30.0	60.0	X	right	0.833799999952	23333.0
n/a	n/a	h6	59.0	8.0	LH	17.0	65.0	30.0	60.0	X	right	0.486299999952	23398.0
n/a	n/a	h6	59.0	9.0	LH	30.0	64.0	30.0	60.0	X	right	0.100599999905	23462.0
n/a	n/a	h6	60.0	0.0	LH	69.0	62.0	56.0	60.0	R	right	0.484299999952	23524.0
n/a	n/a	h6	60.0	1.0	LH	54.0	53.0	56.0	60.0	L	left	0.284299999952	23578.0
n/a	n/a	h6	60.0	2.0	LH	57.0	59.0	56.0	60.0	L	left	0.702	23635.0
n/a	n/a	h6	60.0	3.0	LH	62.0	60.0	56.0	60.0	L	left	0.835600000143	23697.0
n/a	n/a	h6	60.0	4.0	LH	57.0	51.0	56.0	60.0	X	right	0.473900000095	23748.0
n/a	n/a	h6	60.0	5.0	LH	58.0	50.0	56.0	60.0	X	left	0.272299999952	23806.0
n/a	n/a	h6	60.0	6.0	LH	65.0	48.0	56.0	60.0	X	left	0.638399999857	23871.0
n/a	n/a	h6	60.0	7.0	LH	64.0	68.0	56.0	60.0	X	left	0.234400000095	23935.0
n/a	n/a	h6	60.0	8.0	LH	55.0	54.0	56.0	60.0	X	left	0.100600000143	23990.0
n/a	n/a	h6	60.0	9.0	LH	44.0	46.0	56.0	60.0	X	left	0.101200000048	24034.0
n/a	n/a	h1	61.0	0.0	HL	54.0	35.0	60.0	40.0	L	left	0.603399999857	24088.0
n/a	n/a	h1	61.0	1.0	HL	63.0	42.0	60.0	40.0	R	right	0.234399999857	24130.0
n/a	n/a	h1	61.0	2.0	HL	57.0	53.0	60.0	40.0	L	left	0.417600000143	24187.0
n/a	n/a	h1	61.0	3.0	HL	57.0	48.0	60.0	40.0	R	right	0.701200000048	24235.0
n/a	n/a	h1	61.0	4.0	HL	58.0	50.0	60.0	40.0	X	left	0.367900000095	24293.0
n/a	n/a	h6	62.0	0.0	HL	60.0	56.0	60.0	52.0	R	right	0.334300000191	24349.0
n/a	n/a	h6	62.0	1.0	HL	62.0	49.0	60.0	52.0	L	left	0.287099999905	24411.0
n/a	n/a	h6	62.0	2.0	HL	67.0	51.0	60.0	52.0	R	right	0.185299999952	24462.0
n/a	n/a	h6	62.0	3.0	HL	69.0	53.0	60.0	52.0	R	right	0.740099999905	24515.0
n/a	n/a	h6	62.0	4.0	HL	57.0	49.0	60.0	52.0	X	left	0.734300000191	24572.0
n/a	n/a	h6	62.0	5.0	HL	62.0	39.0	60.0	52.0	X	left	0.139600000143	24634.0
n/a	n/a	h6	62.0	6.0	HL	42.0	47.0	60.0	52.0	X	left	0.0915	24676.0
n/a	n/a	h6	62.0	7.0	HL	69.0	36.0	60.0	52.0	X	left	0.0337999999523	24745.0
n/a	n/a	h6	62.0	8.0	HL	67.0	45.0	60.0	52.0	X	left	0.0849999999999	24812.0
n/a	n/a	h6	62.0	9.0	HL	58.0	56.0	60.0	52.0	X	left	0.087100000143	24870.0
n/a	n/a	h6	63.0	0.0	LH	65.0	77.0	60.0	80.0	L	left	0.731	24935.0
n/a	n/a	h6	63.0	1.0	LH	60.0	78.0	60.0	80.0	L	left	0.634299999952	24995.0
n/a	n/a	h6	63.0	2.0	LH	58.0	68.0	60.0	80.0	L	left	0.617899999857	25053.0
n/a	n/a	h6	63.0	3.0	LH	57.0	81.0	60.0	80.0	R	right	0.584699999809	25134.0
n/a	n/a	h6	63.0	4.0	LH	64.0	82.0	60.0	80.0	X	right	1.31810000014	25216.0
n/a	n/a	h6	63.0	5.0	LH	53.0	89.0	60.0	80.0	X	right	0.222099999905	25305.0
n/a	n/a	h6	63.0	6.0	LH	58.0	72.0	60.0	80.0	X	right	0.2175	25377.0
n/a	n/a	h6	63.0	7.0	LH	56.0	73.0	60.0	80.0	X	right	0.333900000095	25450.0
n/a	n/a	h6	63.0	8.0	LH	59.0	91.0	60.0	80.0	X	right	0.233799999952	25541.0
n/a	n/a	h6	63.0	9.0	LH	48.0	67.0	60.0	80.0	X	right	0.251099999905	25608.0
n/a	n/a	h1	64.0	0.0	LH	25.0	38.0	32.0	40.0	L	left	0.467599999905	25633.0
n/a	n/a	h1	64.0	1.0	LH	44.0	57.0	32.0	40.0	L	left	0.737400000095	25677.0
n/a	n/a	h1	64.0	2.0	LH	29.0	47.0	32.0	40.0	R	right	0.524899999857	25724.0
n/a	n/a	h1	64.0	3.0	LH	36.0	31.0	32.0	40.0	L	left	0.687900000095	25760.0
n/a	n/a	h1	64.0	4.0	LH	14.0	23.0	32.0	40.0	X	right	0.167799999952	25783.0
n/a	n/a	h6	65.0	0.0	LH	53.0	39.0	40.0	48.0	R	right	0.267599999905	25822.0
n/a	n/a	h6	65.0	1.0	LH	50.0	55.0	40.0	48.0	R	right	0.684	25877.0
n/a	n/a	h6	65.0	2.0	LH	44.0	56.0	40.0	48.0	L	left	0.726	25921.0
n/a	n/a	h6	65.0	3.0	LH	49.0	50.0	40.0	48.0	R	right	0.584899999857	25971.0
n/a	n/a	h6	65.0	4.0	LH	37.0	38.0	40.0	48.0	X	right	1.10129999995	26009.0
n/a	n/a	h6	65.0	5.0	LH	46.0	28.0	40.0	48.0	X	right	0.189700000048	26037.0
n/a	n/a	h6	65.0	6.0	LH	44.0	58.0	40.0	48.0	X	right	0.243	26095.0
n/a	n/a	h6	65.0	7.0	LH	51.0	64.0	40.0	48.0	X	right	0.167400000096	26159.0
n/a	n/a	h6	65.0	8.0	LH	36.0	56.0	40.0	48.0	X	right	0.106100000143	26215.0
n/a	n/a	h6	65.0	9.0	LH	47.0	42.0	40.0	48.0	X	right	0.0807999999524	26257.0
n/a	n/a	h6	66.0	0.0	HL	28.0	15.0	40.0	20.0	L	left	0.734300000191	26285.0
n/a	n/a	h6	66.0	1.0	HL	53.0	16.0	40.0	20.0	L	left	0.801300000191	26338.0
n/a	n/a	h6	66.0	2.0	HL	34.0	28.0	40.0	20.0	L	left	0.251	26372.0
n/a	n/a	h6	66.0	3.0	HL	53.0	21.0	40.0	20.0	R	right	0.371299999952	26393.0
n/a	n/a	h6	66.0	4.0	HL	40.0	24.0	40.0	20.0	X	left	0.234899999857	26433.0
n/a	n/a	h6	66.0	5.0	HL	52.0	24.0	40.0	20.0	X	left	0.221	26485.0
n/a	n/a	h6	66.0	6.0	HL	55.0	16.0	40.0	20.0	X	right	0.252700000048	26501.0
n/a	n/a	h6	66.0	7.0	HL	24.0	24.0	40.0	20.0	X	left	0.434	26525.0
n/a	n/a	h6	66.0	8.0	HL	40.0	23.0	40.0	20.0	X	left	0.136299999952	26565.0
n/a	n/a	h6	66.0	9.0	HL	45.0	28.0	40.0	20.0	X	left	0.1345	26610.0
n/a	n/a	h6	67.0	0.0	LH	60.0	79.0	60.0	72.0	R	right	0.554	26689.0
n/a	n/a	h6	67.0	1.0	LH	57.0	66.0	60.0	72.0	R	right	0.701300000191	26755.0
n/a	n/a	h6	67.0	2.0	LH	64.0	65.0	60.0	72.0	L	left	0.3185	26819.0
n/a	n/a	h6	67.0	3.0	LH	63.0	69.0	60.0	72.0	R	right	0.219400000095	26888.0
n/a	n/a	h6	67.0	4.0	LH	65.0	75.0	60.0	72.0	X	left	0.587700000048	26953.0
n/a	n/a	h6	67.0	5.0	LH	52.0	77.0	60.0	72.0	X	left	0.350400000095	27005.0
n/a	n/a	h6	67.0	6.0	LH	73.0	86.0	60.0	72.0	X	left	0.184300000191	27078.0
n/a	n/a	h6	67.0	7.0	LH	66.0	80.0	60.0	72.0	X	left	0.283700000048	27144.0
n/a	n/a	h6	67.0	8.0	LH	57.0	73.0	60.0	72.0	X	left	0.3495	27201.0
n/a	n/a	h6	67.0	9.0	LH	60.0	75.0	60.0	72.0	X	left	0.169900000095	27261.0
n/a	n/a	h1	68.0	0.0	LH	45.0	56.0	40.0	60.0	R	right	1.1030999999	27317.0
n/a	n/a	h1	68.0	1.0	LH	29.0	52.0	40.0	60.0	R	right	0.467700000048	27369.0
n/a	n/a	h1	68.0	2.0	LH	47.0	60.0	40.0	60.0	R	right	0.472799999952	27429.0
n/a	n/a	h1	68.0	3.0	LH	36.0	57.0	40.0	60.0	L	left	0.654200000048	27465.0
n/a	n/a	h1	68.0	4.0	LH	41.0	51.0	40.0	60.0	X	right	0.584900000095	27516.0
n/a	n/a	h6	69.0	0.0	LH	25.0	48.0	20.0	40.0	L	left	0.904299999952	27541.0
n/a	n/a	h6	69.0	1.0	LH	20.0	33.0	20.0	40.0	R	right	0.284099999905	27574.0
n/a	n/a	h6	69.0	2.0	LH	8.0	50.0	20.0	40.0	R	right	0.433899999857	27624.0
n/a	n/a	h6	69.0	3.0	LH	14.0	48.0	20.0	40.0	L	left	0.351200000048	27638.0
n/a	n/a	h6	69.0	4.0	LH	22.0	28.0	20.0	40.0	X	right	0.200400000095	27666.0
n/a	n/a	h6	69.0	5.0	LH	24.0	35.0	20.0	40.0	X	right	0.167400000095	27701.0
n/a	n/a	h6	69.0	6.0	LH	22.0	40.0	20.0	40.0	X	right	0.183799999952	27741.0
n/a	n/a	h6	69.0	7.0	LH	27.0	49.0	20.0	40.0	X	right	0.117300000191	27790.0
n/a	n/a	h6	69.0	8.0	LH	31.0	37.0	20.0	40.0	X	right	0.0520999999046	27827.0
n/a	n/a	h6	69.0	9.0	LH	26.0	57.0	20.0	40.0	X	right	0.0333000001906	27884.0
n/a	n/a	h1	70.0	0.0	LH	32.0	76.0	40.0	60.0	L	left	0.634800000191	27916.0
n/a	n/a	h1	70.0	1.0	LH	37.0	65.0	40.0	60.0	R	right	0.567599999905	27981.0
n/a	n/a	h1	70.0	2.0	LH	37.0	68.0	40.0	60.0	L	left	0.784700000048	28018.0
n/a	n/a	h1	70.0	3.0	LH	46.0	55.0	40.0	60.0	R	right	0.501299999952	28073.0
n/a	n/a	h1	70.0	4.0	LH	31.0	69.0	40.0	60.0	X	right	0.502299999952	28142.0
n/a	n/a	h1	71.0	0.0	LH	48.0	67.0	40.0	70.0	R	right	0.417799999952	28209.0
n/a	n/a	h1	71.0	1.0	LH	31.0	62.0	40.0	70.0	L	left	0.434200000048	28240.0
n/a	n/a	h1	71.0	2.0	LH	39.0	65.0	40.0	70.0	R	right	0.270100000143	28305.0
n/a	n/a	h1	71.0	3.0	LH	50.0	62.0	40.0	70.0	L	left	0.251299999952	28355.0
n/a	n/a	h1	71.0	4.0	LH	47.0	64.0	40.0	70.0	X	right	0.401	28419.0
n/a	n/a	h1	72.0	0.0	LH	32.0	50.0	36.0	40.0	L	left	0.417199999809	28451.0
n/a	n/a	h1	72.0	1.0	LH	39.0	48.0	36.0	40.0	R	right	0.183900000095	28499.0
n/a	n/a	h1	72.0	2.0	LH	32.0	44.0	36.0	40.0	L	left	0.201100000143	28531.0
n/a	n/a	h1	72.0	3.0	LH	44.0	31.0	36.0	40.0	L	left	0.735099999905	28575.0
n/a	n/a	h1	72.0	4.0	LH	27.0	33.0	36.0	40.0	X	right	0.417899999857	28608.0
n/a	n/a	h1	73.0	0.0	LH	29.0	30.0	28.0	40.0	R	right	0.420300000191	28638.0
n/a	n/a	h1	73.0	1.0	LH	27.0	39.0	28.0	40.0	L	left	0.285200000048	28665.0
n/a	n/a	h1	73.0	2.0	LH	25.0	54.0	28.0	40.0	R	right	0.168199999809	28719.0
n/a	n/a	h1	73.0	3.0	LH	31.0	44.0	28.0	40.0	L	left	0.184200000048	28750.0
n/a	n/a	h1	73.0	4.0	LH	26.0	45.0	28.0	40.0	X	right	0.417100000143	28795.0
n/a	n/a	h1	74.0	0.0	LH	46.0	75.0	48.0	60.0	R	right	0.317700000048	28870.0
n/a	n/a	h1	74.0	1.0	LH	58.0	48.0	48.0	60.0	R	right	0.284700000048	28918.0
n/a	n/a	h1	74.0	2.0	LH	51.0	58.0	48.0	60.0	L	left	0.226199999809	28969.0
n/a	n/a	h1	74.0	3.0	LH	40.0	57.0	48.0	60.0	R	right	0.117299999952	29026.0
n/a	n/a	h1	74.0	4.0	LH	29.0	51.0	48.0	60.0	X	right	0.202399999857	29077.0
n/a	n/a	h1	75.0	0.0	LH	58.0	43.0	56.0	60.0	L	left	0.437700000048	29135.0
n/a	n/a	h1	75.0	1.0	LH	33.0	67.0	56.0	60.0	R	right	0.167599999905	29202.0
n/a	n/a	h1	75.0	2.0	LH	55.0	59.0	56.0	60.0	L	left	0.589900000095	29257.0
n/a	n/a	h1	75.0	3.0	LH	42.0	64.0	56.0	60.0	R	right	0.0854000000954	29321.0
n/a	n/a	h1	75.0	4.0	LH	66.0	59.0	56.0	60.0	X	right	0.518799999952	29380.0
n/a	n/a	h6	76.0	0.0	HL	55.0	61.0	60.0	52.0	R	right	0.384100000143	29441.0
n/a	n/a	h6	76.0	1.0	HL	60.0	43.0	60.0	52.0	L	left	0.351299999952	29501.0
n/a	n/a	h6	76.0	2.0	HL	65.0	62.0	60.0	52.0	L	left	0.651099999905	29566.0
n/a	n/a	h6	76.0	3.0	HL	53.0	41.0	60.0	52.0	R	right	0.150900000095	29607.0
n/a	n/a	h6	76.0	4.0	HL	61.0	57.0	60.0	52.0	X	right	0.334799999952	29664.0
n/a	n/a	h6	76.0	5.0	HL	59.0	67.0	60.0	52.0	X	right	0.217699999809	29731.0
n/a	n/a	h6	76.0	6.0	HL	42.0	45.0	60.0	52.0	X	right	0.3065	29776.0
n/a	n/a	h6	76.0	7.0	HL	60.0	45.0	60.0	52.0	X	right	0.190200000048	29821.0
n/a	n/a	h6	76.0	8.0	HL	64.0	53.0	60.0	52.0	X	right	0.185399999857	29874.0
n/a	n/a	h6	76.0	9.0	HL	56.0	38.0	60.0	52.0	X	right	0.103600000143	29912.0
n/a	n/a	h1	77.0	0.0	LH	52.0	73.0	52.0	60.0	L	left	0.335200000048	29964.0
n/a	n/a	h1	77.0	1.0	LH	49.0	64.0	52.0	60.0	L	left	0.517799999952	30013.0
n/a	n/a	h1	77.0	2.0	LH	65.0	58.0	52.0	60.0	R	right	0.2675	30071.0
n/a	n/a	h1	77.0	3.0	LH	52.0	61.0	52.0	60.0	R	right	0.651299999952	30132.0
n/a	n/a	h1	77.0	4.0	LH	57.0	64.0	52.0	60.0	X	right	2.49129999995	30196.0
n/a	n/a	h6	78.0	0.0	LH	64.0	66.0	60.0	72.0	R	right	0.3525	30262.0
n/a	n/a	h6	78.0	1.0	LH	57.0	79.0	60.0	72.0	R	right	0.334299999952	30341.0
n/a	n/a	h6	78.0	2.0	LH	60.0	65.0	60.0	72.0	L	left	0.552399999857	30401.0
n/a	n/a	h6	78.0	3.0	LH	63.0	63.0	60.0	72.0	R	right	0.184300000191	30464.0
n/a	n/a	h6	78.0	4.0	LH	67.0	90.0	60.0	72.0	X	right	0.116900000095	30554.0
n/a	n/a	h6	78.0	5.0	LH	56.0	69.0	60.0	72.0	X	right	0.150699999809	30623.0
n/a	n/a	h6	78.0	6.0	LH	53.0	64.0	60.0	72.0	X	right	0.133599999905	30687.0
n/a	n/a	h6	78.0	7.0	LH	65.0	72.0	60.0	72.0	X	right	0.621700000048	30759.0
n/a	n/a	h6	78.0	8.0	LH	54.0	66.0	60.0	72.0	X	right	0.134099999905	30825.0
n/a	n/a	h6	78.0	9.0	LH	63.0	62.0	60.0	72.0	X	right	0.1685	30887.0
n/a	n/a	h1	79.0	0.0	LH	36.0	57.0	40.0	60.0	R	right	0.2845	30944.0
n/a	n/a	h1	79.0	1.0	LH	29.0	52.0	40.0	60.0	R	right	0.551200000048	30996.0
n/a	n/a	h1	79.0	2.0	LH	47.0	60.0	40.0	60.0	R	right	0.317899999857	31056.0
n/a	n/a	h1	79.0	3.0	LH	45.0	56.0	40.0	60.0	L	left	0.601299999952	31101.0
n/a	n/a	h1	79.0	4.0	LH	31.0	50.0	40.0	60.0	X	right	0.401	31151.0
